trigger_code,trigger_name,onset_time,trial_number,condition,word,response,rt
2,COND1_LABEL,0.017122500023106113,1,1,,,
4,COND1_WORD,1.5332979000231717,1,1,crayfish,,
6,RESP_Y,2.4145184000080917,1,1,crayfish,y,0.8812348000064958
3,COND2_LABEL,5.43331570000737,2,2,,,
5,COND2_WORD,6.949972200003685,2,2,deer,,
6,RESP_Y,8.191444700001739,2,2,deer,y,1.241498799994588
2,COND1_LABEL,11.200119300017832,3,1,,,
4,COND1_WORD,12.717388999997638,3,1,armadillo,,
6,RESP_Y,13.584474400006002,3,1,armadillo,y,0.86712599999737
2,COND1_LABEL,16.6007457000087,4,1,,,
4,COND1_WORD,18.117486300005112,4,1,button,,
7,RESP_N,18.84757390001323,4,1,button,n,0.7301030000089668
2,COND1_LABEL,21.850890500005335,5,1,,,
4,COND1_WORD,23.367517000006046,5,1,flashlight,,
7,RESP_N,24.462562000000617,5,1,flashlight,n,1.0950707999872975
2,COND1_LABEL,27.467732600023737,6,1,,,
4,COND1_WORD,28.98465640001814,6,1,flint,,
7,RESP_N,30.145586900005583,6,1,flint,n,1.1609445000067353
3,COND2_LABEL,33.15100720000919,7,2,,,
5,COND2_WORD,34.66787840001052,7,2,squid,,
6,RESP_Y,35.52747060000547,7,2,squid,y,0.8596187000221107
2,COND1_LABEL,38.534504300012486,8,1,,,
4,COND1_WORD,40.051112100016326,8,1,chair,,
6,RESP_Y,41.08054620001349,8,1,chair,y,1.0294508000079077
2,COND1_LABEL,44.08468470000662,9,1,,,
4,COND1_WORD,45.601279700000305,9,1,plant,,
6,RESP_Y,46.26143890002277,9,1,plant,y,0.6601854999898933
3,COND2_LABEL,49.26803690000088,10,2,,,
5,COND2_WORD,50.7847956000187,10,2,tortoise,,
6,RESP_Y,51.50249630000326,10,2,tortoise,y,0.7177170000213664
3,COND2_LABEL,54.51812079999945,11,2,,,
5,COND2_WORD,56.03474620002089,11,2,gravel,,
7,RESP_N,56.79350320002413,11,2,gravel,n,0.7587723000033293
3,COND2_LABEL,59.80174480000278,12,2,,,
5,COND2_WORD,61.31836060000933,12,2,garage,,
7,RESP_N,62.43060570000671,12,2,garage,n,1.1122580000082962
3,COND2_LABEL,65.4351686000009,13,2,,,
5,COND2_WORD,66.95189789999858,13,2,raccoon,,
6,RESP_Y,67.55157190002501,13,2,raccoon,y,0.5996882999897934
2,COND1_LABEL,70.56851010001265,14,1,,,
4,COND1_WORD,72.08481440000469,14,1,fuse,,
7,RESP_N,73.03552800000762,14,1,fuse,n,0.9507414000108838
3,COND2_LABEL,76.05191619999823,15,2,,,
5,COND2_WORD,77.56877270000405,15,2,rattlesnake,,
6,RESP_Y,78.82466330000898,15,2,rattlesnake,y,1.2559039000188932
3,COND2_LABEL,81.83514860001742,16,2,,,
5,COND2_WORD,83.35215069999686,16,2,shark,,
6,RESP_Y,84.13660600001458,16,2,shark,y,0.7844695999810938
2,COND1_LABEL,87.15206500000204,17,1,,,
4,COND1_WORD,88.66886950001935,17,1,chameleon,,
6,RESP_Y,90.5165554000123,17,1,chameleon,y,1.8477060000004712
2,COND1_LABEL,93.53558980001253,18,1,,,
4,COND1_WORD,95.05220610002289,18,1,bowl,,
7,RESP_N,96.12654580001254,18,1,bowl,n,1.074355500022648
2,COND1_LABEL,99.13547830001335,19,1,,,
4,COND1_WORD,100.65242980001494,19,1,anchor,,
6,RESP_Y,101.80753640001058,19,1,anchor,y,1.155132899992168
2,COND1_LABEL,104.81911920002312,20,1,,,
4,COND1_WORD,106.33557590001146,20,1,bicycle,,
7,RESP_N,107.24067450000439,20,1,bicycle,n,0.9051429000101052
3,COND2_LABEL,110.25250230001984,21,2,,,
5,COND2_WORD,111.7692402000248,21,2,rope,,
7,RESP_N,113.15167819999624,21,2,rope,n,1.3824515999876894
3,COND2_LABEL,116.16899840001133,22,2,,,
5,COND2_WORD,117.68650460001663,22,2,satellite,,
7,RESP_N,118.55456930000219,22,2,satellite,n,0.8680785000033211
2,COND1_LABEL,121.56943020000472,23,1,,,
4,COND1_WORD,123.08618280000519,23,1,fish,,
7,RESP_N,124.76360910001677,23,1,fish,n,1.677438999991864
2,COND1_LABEL,127.76968240001588,24,1,,,
4,COND1_WORD,129.2862082000065,24,1,duck,,
7,RESP_N,130.46663940002327,24,1,duck,n,1.180485699995188
2,COND1_LABEL,133.46957159999874,25,1,,,
4,COND1_WORD,134.9862549000245,25,1,fox,,
7,RESP_N,135.7235895000049,25,1,fox,n,0.7373498000088148
2,COND1_LABEL,138.73649540002225,26,1,,,
4,COND1_WORD,140.25298060002388,26,1,cargo,,
6,RESP_Y,141.42466780001996,26,1,cargo,y,1.1717013999877963
3,COND2_LABEL,144.4365955000103,27,2,,,
5,COND2_WORD,145.95332359999884,27,2,moth,,
7,RESP_N,146.97258240001975,27,2,moth,n,1.0192735999880824
2,COND1_LABEL,149.98661150000407,28,1,,,
4,COND1_WORD,151.50352210001438,28,1,heron,,
6,RESP_Y,152.45363329999964,28,1,heron,y,0.9501250000030268
2,COND1_LABEL,155.47000600001775,29,1,,,
4,COND1_WORD,156.98724100002437,29,1,camera,,
6,RESP_Y,157.93966640002327,29,1,camera,y,0.9524525000015274
3,COND2_LABEL,160.95344100001967,30,2,,,
5,COND2_WORD,162.47011190000921,30,2,robin,,
6,RESP_Y,163.80471110000508,30,2,robin,y,1.3346258999954443
3,COND2_LABEL,166.82048370002303,31,2,,,
5,COND2_WORD,168.33689490001416,31,2,phone,,
7,RESP_N,169.65672850000556,31,2,phone,n,1.3198611999978311
3,COND2_LABEL,172.6702590000059,32,2,,,
5,COND2_WORD,174.1867773999984,32,2,salmon,,
6,RESP_Y,174.93965370001388,32,2,salmon,y,0.7529226000187919
2,COND1_LABEL,177.95400040000095,33,1,,,
4,COND1_WORD,179.4706291000184,33,1,flag,,
6,RESP_Y,180.47365280002123,33,1,flag,y,1.0030368999869097
3,COND2_LABEL,183.48735130002024,34,2,,,
5,COND2_WORD,185.00409010000294,34,2,hose,,
7,RESP_N,185.94762300001457,34,2,hose,n,0.9435486999864224
2,COND1_LABEL,188.95430589999887,35,1,,,
4,COND1_WORD,190.47064949999913,35,1,fossil,,
7,RESP_N,191.93565290002152,35,1,fossil,n,1.4650296999898273
2,COND1_LABEL,194.95391090001795,36,1,,,
4,COND1_WORD,196.47103400001652,36,1,dingo,,
7,RESP_N,197.3006471999979,36,1,dingo,n,0.8296141999890096
2,COND1_LABEL,200.30460020000464,37,1,,,
4,COND1_WORD,201.82097420000355,37,1,bamboo,,
6,RESP_Y,203.04965739999898,37,1,bamboo,y,1.228726600005757
3,COND2_LABEL,206.05435930000385,38,2,,,
5,COND2_WORD,207.57098710001446,38,2,snipe,,
7,RESP_N,209.19567000001553,38,2,snipe,n,1.6246972000226378
3,COND2_LABEL,212.20435929999803,39,2,,,
5,COND2_WORD,213.72115270001814,39,2,tent,,
7,RESP_N,214.57267370002228,39,2,tent,n,0.851535399997374
2,COND1_LABEL,217.58840880001662,40,1,,,
4,COND1_WORD,219.104468000005,40,1,ant,,
6,RESP_Y,219.9866425000073,40,1,ant,y,0.8821893999993335
3,COND2_LABEL,223.00496530000237,41,2,,,
5,COND2_WORD,224.52152700000443,41,2,spider,,
6,RESP_Y,225.1277143000043,41,2,spider,y,0.606212599988794
2,COND1_LABEL,228.13823110001977,42,1,,,
4,COND1_WORD,229.654731800023,42,1,fern,,
7,RESP_N,230.78574490000028,42,1,fern,n,1.1310372999869287
3,COND2_LABEL,233.80473880001227,43,2,,,
5,COND2_WORD,235.32168630001252,43,2,koala,,
6,RESP_Y,235.9107785000233,43,2,koala,y,0.589106500003254
2,COND1_LABEL,238.92163470000378,44,1,,,
4,COND1_WORD,240.43870610001613,44,1,fish,,
7,RESP_N,241.48676520001027,44,1,fish,n,1.048073200014187
2,COND1_LABEL,244.50503050000407,45,1,,,
4,COND1_WORD,246.02169409999624,45,1,orangutan,,
6,RESP_Y,247.066716500005,45,1,orangutan,y,1.04506620002212
3,COND2_LABEL,250.07189270001254,46,2,,,
5,COND2_WORD,251.5886875000142,46,2,scarecrow,,
6,RESP_Y,252.27769010001794,46,2,scarecrow,y,0.6890179999754764
3,COND2_LABEL,255.28850220001186,47,2,,,
5,COND2_WORD,256.8051591000112,47,2,lens,,
7,RESP_N,257.46084549999796,47,2,lens,n,0.6556985999923199
2,COND1_LABEL,260.47227550001116,48,1,,,
4,COND1_WORD,261.9886233000143,48,1,chicken,,
6,RESP_Y,262.6447225000011,48,1,chicken,y,0.6561262999894097
3,COND2_LABEL,265.6553378000099,49,2,,,
5,COND2_WORD,267.17249060000177,49,2,knife,,
7,RESP_N,268.0637646999967,49,2,knife,n,0.8912878999835812
2,COND1_LABEL,271.0722926000017,50,1,,,
4,COND1_WORD,272.58890339999925,50,1,carpet,,
6,RESP_Y,273.4397416000138,50,1,carpet,y,0.8508641000080388
2,COND1_LABEL,276.45589010001277,51,1,,,
4,COND1_WORD,277.9722607000149,51,1,cobra,,
6,RESP_Y,279.06874550000066,51,1,cobra,y,1.0965119999891613
3,COND2_LABEL,282.07235140001285,52,2,,,
5,COND2_WORD,283.5893131000048,52,2,slug,,
7,RESP_N,284.71376010001404,52,2,slug,n,1.1244726000004448
3,COND2_LABEL,287.7226232000103,53,2,,,
5,COND2_WORD,289.2392280000204,53,2,lava,,
7,RESP_N,290.23079359999974,53,2,lava,n,0.9916035999776796
3,COND2_LABEL,293.23945829999866,54,2,,,
5,COND2_WORD,294.7560502999986,54,2,tool,,
7,RESP_N,295.71174660002,54,2,tool,n,0.9557114999915939
2,COND1_LABEL,298.7224715000193,55,1,,,
4,COND1_WORD,300.2393203000247,55,1,cable,,
6,RESP_Y,301.16786230000434,55,1,cable,y,0.9285679000022355
3,COND2_LABEL,304.17283970001154,56,2,,,
5,COND2_WORD,305.68957720001345,56,2,tick,,
6,RESP_Y,306.5727658000251,56,2,tick,y,0.8832153999828734
2,COND1_LABEL,309.5896216999972,57,1,,,
4,COND1_WORD,311.1061867000244,57,1,bird,,
7,RESP_N,312.3557664999971,57,1,bird,n,1.2495941999950446
2,COND1_LABEL,315.3730123999994,58,1,,,
4,COND1_WORD,316.88970480000717,58,1,dolphin,,
7,RESP_N,318.049783800001,58,1,dolphin,n,1.1600947999977507
2,COND1_LABEL,321.0566824999987,59,1,,,
4,COND1_WORD,322.5730855000147,59,1,firefly,,
7,RESP_N,323.57278220000444,59,1,firefly,n,0.9997238999931142
3,COND2_LABEL,326.58990050002467,60,2,,,
5,COND2_WORD,328.1069204000232,60,2,ladybug,,
6,RESP_Y,329.11480810001376,60,2,ladybug,y,1.0079113999963738
2,COND1_LABEL,332.12339730001986,61,1,,,
4,COND1_WORD,333.6401885000232,61,1,grasshopper,,
6,RESP_Y,334.45684020000044,61,1,grasshopper,y,0.8166646999889053
3,COND2_LABEL,337.4735522000119,62,2,,,
5,COND2_WORD,338.99006760001066,62,2,sand,,
7,RESP_N,339.88982410001336,62,2,sand,n,0.8997712999989744
2,COND1_LABEL,342.90690290002385,63,1,,,
4,COND1_WORD,344.4236918000097,63,1,bluebell,,
7,RESP_N,345.1928075000178,63,1,bluebell,n,0.7691320999874733
3,COND2_LABEL,348.2068613000156,64,2,,,
5,COND2_WORD,349.7239623000205,64,2,ray,,
6,RESP_Y,351.12186620000284,64,2,ray,y,1.397918300004676
2,COND1_LABEL,354.1429563999991,65,1,,,
4,COND1_WORD,355.6570950000023,65,1,crow,,
7,RESP_N,356.7717653000145,65,1,crow,n,1.1146861999877729
3,COND2_LABEL,359.7904179000179,66,2,,,
5,COND2_WORD,361.3071370999969,66,2,urn,,
7,RESP_N,362.37291140001616,66,2,urn,n,1.0657875999750104
2,COND1_LABEL,365.39099050001823,67,1,,,
4,COND1_WORD,366.9072075000149,67,1,coin,,
7,RESP_N,367.71891930000857,67,1,coin,n,0.8117275999975391
2,COND1_LABEL,370.7240386000194,68,1,,,
4,COND1_WORD,372.2410457000078,68,1,compass,,
6,RESP_Y,372.9217919000075,68,1,compass,y,0.6807766999991145
3,COND2_LABEL,375.94115530001,69,2,,,
5,COND2_WORD,377.45742280001286,69,2,wolf,,
6,RESP_Y,378.1329119000002,69,2,wolf,y,0.6755036000104155
3,COND2_LABEL,381.1406490000081,70,2,,,
5,COND2_WORD,382.65776650002226,70,2,mop,,
7,RESP_N,383.62381280001136,70,2,mop,n,0.9660732999909669
2,COND1_LABEL,386.64110249999794,71,1,,,
4,COND1_WORD,388.1578254000051,71,1,elk,,
7,RESP_N,388.89591610000934,71,1,elk,n,0.7381030000105966
3,COND2_LABEL,391.90796989999944,72,2,,,
5,COND2_WORD,393.4244582000247,72,2,impala,,
6,RESP_Y,394.6388825000031,72,2,impala,y,1.2144542000023648
2,COND1_LABEL,397.6578349000192,73,1,,,
4,COND1_WORD,399.17460310002207,73,1,clock,,
7,RESP_N,400.02482780002174,73,1,clock,n,0.8502520999754779
2,COND1_LABEL,403.04137230000924,74,1,,,
4,COND1_WORD,404.55796180001926,74,1,frog,,
7,RESP_N,405.125941700011,74,1,frog,n,0.5679966000025161
2,COND1_LABEL,408.14130509999814,75,1,,,
4,COND1_WORD,409.65810339999734,75,1,hook,,
7,RESP_N,410.5439327000058,75,1,hook,n,0.8858459000184666
2,COND1_LABEL,413.5585386000166,76,1,,,
4,COND1_WORD,415.0744982000033,76,1,book,,
7,RESP_N,415.89396300000953,76,1,book,n,0.8194787999964319
3,COND2_LABEL,418.90825680000125,77,2,,,
5,COND2_WORD,420.42498680000426,77,2,stamp,,
7,RESP_N,421.58585170001606,77,2,stamp,n,1.1608798999805003
2,COND1_LABEL,424.5916447000054,78,1,,,
4,COND1_WORD,426.10831720000715,78,1,castle,,
6,RESP_Y,427.12594340002397,78,1,castle,y,1.0176403999794275
3,COND2_LABEL,430.14193630000227,79,2,,,
5,COND2_WORD,431.6585527000134,79,2,table,,
7,RESP_N,433.02288730000146,79,2,table,n,1.3643495999858715
3,COND2_LABEL,436.0418668000202,80,2,,,
5,COND2_WORD,437.5585837000108,80,2,orb,,
7,RESP_N,438.5740107000165,80,2,orb,n,1.015453100000741
3,COND2_LABEL,441.5924460000242,81,2,,,
5,COND2_WORD,443.1087781000242,81,2,marlin,,
6,RESP_Y,444.3190246000013,81,2,marlin,y,1.2102858999860473
2,COND1_LABEL,447.3255416000029,82,1,,,
4,COND1_WORD,448.8424131000065,82,1,cassette,,
6,RESP_Y,450.31198420000146,82,1,cassette,y,1.4695846000104211
3,COND2_LABEL,453.3256769000145,83,2,,,
5,COND2_WORD,454.84232039999915,83,2,larvae,,
6,RESP_Y,455.88390909999725,83,2,larvae,y,1.041602499986766
2,COND1_LABEL,458.89243570002145,84,1,,,
4,COND1_WORD,460.40903530002106,84,1,alarm,,
6,RESP_Y,461.0229086000181,84,1,alarm,y,0.6138885999971535
2,COND1_LABEL,464.0260036000109,85,1,,,
4,COND1_WORD,465.54261669999687,85,1,attic,,
6,RESP_Y,466.3919554000022,85,1,attic,y,0.8493516999878921
2,COND1_LABEL,469.40914060000796,86,1,,,
4,COND1_WORD,470.9258452000213,86,1,bucket,,
7,RESP_N,472.6159886000096,86,1,bucket,n,1.6901592000212986
2,COND1_LABEL,475.62621170000057,87,1,,,
4,COND1_WORD,477.1424984000041,87,1,flame,,
6,RESP_Y,477.8759146000084,87,1,flame,y,0.7334565999917686
3,COND2_LABEL,480.8927059000125,88,2,,,
5,COND2_WORD,482.4092316000024,88,2,oyster,,
6,RESP_Y,483.1650094000215,88,2,oyster,y,0.7558357999951113
3,COND2_LABEL,486.17623470001854,89,2,,,
5,COND2_WORD,487.6930011000077,89,2,kitchen,,
7,RESP_N,488.46599990001414,89,2,kitchen,n,0.7730447999783792
3,COND2_LABEL,491.4762411999982,90,2,,,
5,COND2_WORD,492.9929667999968,90,2,wallet,,
7,RESP_N,494.1790450999979,90,2,wallet,n,1.1860931999981403
2,COND1_LABEL,497.2267177000176,91,1,,,
4,COND1_WORD,498.7433675000211,91,1,brush,,
7,RESP_N,499.9750236000109,91,1,brush,n,1.231681800010847
3,COND2_LABEL,502.99339479999617,92,2,,,
5,COND2_WORD,504.51042240002425,92,2,penguin,,
6,RESP_Y,505.41208410001127,92,2,penguin,y,0.9016750000009779
2,COND1_LABEL,508.42657800001325,93,1,,,
4,COND1_WORD,509.94372840001597,93,1,cave,,
6,RESP_Y,510.6159694000089,93,1,cave,y,0.6722544000076596
2,COND1_LABEL,513.6266790000082,94,1,,,
4,COND1_WORD,515.1436380000087,94,1,fork,,
7,RESP_N,515.8860020000138,94,1,fork,n,0.7423791000037454
2,COND1_LABEL,518.8937204999966,95,1,,,
4,COND1_WORD,520.4102069000073,95,1,hummingbird,,
7,RESP_N,521.3270669000049,95,1,hummingbird,n,0.9168737000145484
2,COND1_LABEL,524.3435521000065,96,1,,,
4,COND1_WORD,525.8605357000197,96,1,bridge,,
7,RESP_N,526.5509886000073,96,1,bridge,n,0.6904679000144824
3,COND2_LABEL,529.5604913000134,97,2,,,
5,COND2_WORD,531.0772101000184,97,2,torch,,
7,RESP_N,531.750992300018,97,2,torch,n,0.6737988999811932
2,COND1_LABEL,534.7611109999998,98,1,,,
4,COND1_WORD,536.2773911000113,98,1,gazelle,,
6,RESP_Y,537.0550798000186,98,1,gazelle,y,0.7777018000197131
3,COND2_LABEL,540.0602566000016,99,2,,,
5,COND2_WORD,541.577199899999,99,2,panther,,
6,RESP_Y,542.7430486000085,99,2,panther,y,1.165862499998184
2,COND1_LABEL,545.7605521000223,100,1,,,
4,COND1_WORD,547.2774847999972,100,1,arch,,
6,RESP_Y,548.1251072000014,100,1,arch,y,0.8476349999837112
3,COND2_LABEL,551.1440195000032,101,2,,,
5,COND2_WORD,552.6606349000067,101,2,jaguar,,
6,RESP_Y,553.4450360000192,101,2,jaguar,y,0.7844291000219528
2,COND1_LABEL,556.460822300025,102,1,,,
4,COND1_WORD,557.9774134000181,102,1,butterfly,,
7,RESP_N,558.7932257000066,102,1,butterfly,n,0.8158268999832217
2,COND1_LABEL,561.8111435000028,103,1,,,
4,COND1_WORD,563.328096000012,103,1,goose,,
7,RESP_N,564.2680947000044,103,1,goose,n,0.9400133999879472
3,COND2_LABEL,567.2778493000078,104,2,,,
5,COND2_WORD,568.7947805000003,104,2,tiger,,
6,RESP_Y,569.5591259000066,104,2,tiger,y,0.7643711999990046
2,COND1_LABEL,572.5777357000043,105,1,,,
4,COND1_WORD,574.0945130000182,105,1,box,,
7,RESP_N,574.8690244000172,105,1,box,n,0.7745243000099435
3,COND2_LABEL,577.8779234000249,106,2,,,
5,COND2_WORD,579.3947402000194,106,2,paper,,
7,RESP_N,580.4750560999964,106,2,paper,n,1.0803424999758136
3,COND2_LABEL,583.4783473999996,107,2,,,
5,COND2_WORD,584.9947412000038,107,2,iguana,,
6,RESP_Y,586.2090318000119,107,2,iguana,y,1.2143184000160545
3,COND2_LABEL,589.227985000005,108,2,,,
5,COND2_WORD,590.7450212000113,108,2,newt,,
7,RESP_N,591.9500930000213,108,2,newt,n,1.2050853000255302
2,COND1_LABEL,594.9617696000205,109,1,,,
4,COND1_WORD,596.4783333000087,109,1,fabric,,
6,RESP_Y,597.1861528000154,109,1,fabric,y,0.7078314000100363
2,COND1_LABEL,600.1948537999997,110,1,,,
4,COND1_WORD,601.7120564000215,110,1,cork,,
7,RESP_N,602.4200918000133,110,1,cork,n,0.7080481000011787
3,COND2_LABEL,605.4284135000198,111,2,,,
5,COND2_WORD,606.9452308000182,111,2,magpie,,
7,RESP_N,608.066145800025,111,2,magpie,n,1.120927899988601
2,COND1_LABEL,611.078688700014,112,1,,,
4,COND1_WORD,612.5952110000071,112,1,blanket,,
6,RESP_Y,613.3190857000009,112,1,blanket,y,0.7238894999900367
2,COND1_LABEL,616.3288192000182,113,1,,,
4,COND1_WORD,617.8454257000121,113,1,axle,,
6,RESP_Y,619.2130896000017,113,1,axle,y,1.367690399987623
3,COND2_LABEL,622.2287362000206,114,2,,,
5,COND2_WORD,623.7455924000242,114,2,octopus,,
6,RESP_Y,624.8041354000161,114,2,octopus,y,1.0585570000112057
3,COND2_LABEL,627.8123242000001,115,2,,,
5,COND2_WORD,629.3290564000199,115,2,watch,,
7,RESP_N,630.893088700017,115,2,watch,n,1.5640495999832638
3,COND2_LABEL,633.9123479000118,116,2,,,
5,COND2_WORD,635.429329800012,116,2,lamp,,
7,RESP_N,636.2181989000237,116,2,lamp,n,0.7888823999965098
3,COND2_LABEL,639.2289787000045,117,2,,,
5,COND2_WORD,640.7458262,117,2,kangaroo,,
6,RESP_Y,641.6930954999989,117,2,kangaroo,y,0.947282900015125
2,COND1_LABEL,644.6957876000088,118,1,,,
4,COND1_WORD,646.2126096000138,118,1,grill,,
7,RESP_N,646.9480619000096,118,1,grill,n,0.7354656000097748
2,COND1_LABEL,649.9626589000109,119,1,,,
4,COND1_WORD,651.4791836000222,119,1,cod,,
7,RESP_N,652.7501612000051,119,1,cod,n,1.2710197000124026
2,COND1_LABEL,655.7625685000094,120,1,,,
4,COND1_WORD,657.2795419000031,120,1,cup,,
7,RESP_N,658.4682242000126,120,1,cup,n,1.1886959999974351
2,COND1_LABEL,661.4797094000096,121,1,,,
4,COND1_WORD,662.9967469999974,121,1,emu,,
7,RESP_N,664.3311385000125,121,1,emu,n,1.3344110999896657
2,COND1_LABEL,667.3461846999999,122,1,,,
4,COND1_WORD,668.8632603000151,122,1,candle,,
6,RESP_Y,669.8171421000152,122,1,candle,y,0.953897000028519
2,COND1_LABEL,672.8298224000027,123,1,,,
4,COND1_WORD,674.3464229000092,123,1,daisy,,
6,RESP_Y,675.5131400999962,123,1,daisy,y,1.1667324000154622
3,COND2_LABEL,678.529786900006,124,2,,,
5,COND2_WORD,680.0466634000186,124,2,wasp,,
6,RESP_Y,681.4731353000097,124,2,wasp,y,1.4264861000119708
3,COND2_LABEL,684.4798710000177,125,2,,,
5,COND2_WORD,685.9966724000114,125,2,granite,,
7,RESP_N,686.7293177999964,125,2,granite,n,0.7326708999753464
3,COND2_LABEL,689.7468565000163,126,2,,,
5,COND2_WORD,691.2633708000067,126,2,anteater,,
6,RESP_Y,692.3581593999988,126,2,anteater,y,1.094801799976267
2,COND1_LABEL,695.3635306000069,127,1,,,
4,COND1_WORD,696.8805599000189,127,1,bottle,,
7,RESP_N,697.6572501000192,127,1,bottle,n,0.7767038000165485
2,COND1_LABEL,700.6636514000129,128,1,,,
4,COND1_WORD,702.1802119000058,128,1,catfish,,
6,RESP_Y,703.2121499000059,128,1,catfish,y,1.0319519999902695
2,COND1_LABEL,706.2302760000166,129,1,,,
4,COND1_WORD,707.7472258000053,129,1,glove,,
7,RESP_N,708.6781594000058,129,1,glove,n,0.9309472000168171
3,COND2_LABEL,711.6972519000119,130,2,,,
5,COND2_WORD,713.2135125000204,130,2,platypus,,
6,RESP_Y,713.9211890000151,130,2,platypus,y,0.7076944999862462
2,COND1_LABEL,716.9305873000121,131,1,,,
4,COND1_WORD,718.4473173000151,131,1,bison,,
7,RESP_N,719.3391534000111,131,1,bison,n,0.8918621000193525
2,COND1_LABEL,722.346849900001,132,1,,,
4,COND1_WORD,723.8639961000008,132,1,bandage,,
6,RESP_Y,724.7991964000103,132,1,bandage,y,0.9352268000075128
2,COND1_LABEL,727.814199400018,133,1,,,
4,COND1_WORD,729.3306265000138,133,1,barrel,,
6,RESP_Y,730.1111920000112,133,1,barrel,y,0.7805818000051659
3,COND2_LABEL,733.1143187000125,134,2,,,
5,COND2_WORD,734.6309264000156,134,2,palace,,
7,RESP_N,735.6572134000016,134,2,palace,n,1.0263012000068557
2,COND1_LABEL,738.6642974000133,135,1,,,
4,COND1_WORD,740.1811242999975,135,1,clover,,
7,RESP_N,741.017205000011,135,1,clover,n,0.8360946000029799
2,COND1_LABEL,744.031089600001,136,1,,,
4,COND1_WORD,745.5476693000237,136,1,falcon,,
6,RESP_Y,746.3382219000196,136,1,falcon,y,0.7905911999987438
2,COND1_LABEL,749.3476740000187,137,1,,,
4,COND1_WORD,750.8645673000137,137,1,flamingo,,
6,RESP_Y,751.8232766000147,137,1,flamingo,y,0.9587225000141189
3,COND2_LABEL,754.8312023000035,138,2,,,
5,COND2_WORD,756.3483198000176,138,2,shard,,
7,RESP_N,757.7202280000201,138,2,shard,n,1.3719233000010718
2,COND1_LABEL,760.7314731000224,139,1,,,
4,COND1_WORD,762.2481613999989,139,1,bee,,
7,RESP_N,763.7642142999975,139,1,bee,n,1.5160658999811858
2,COND1_LABEL,766.7815313000174,140,1,,,
4,COND1_WORD,768.2981180000061,140,1,brick,,
7,RESP_N,769.4483844000206,140,1,brick,n,1.1502816999854986
3,COND2_LABEL,772.4654231000168,141,2,,,
5,COND2_WORD,773.9817558000213,141,2,walrus,,
6,RESP_Y,774.6762250000029,141,2,walrus,y,0.6944834000023548
2,COND1_LABEL,777.6818415000162,142,1,,,
4,COND1_WORD,779.1985669000132,142,1,gun,,
7,RESP_N,780.7803210999991,142,1,gun,n,1.5817672999983188
3,COND2_LABEL,783.798479500023,143,2,,,
5,COND2_WORD,785.3150123000087,143,2,sandstone,,
7,RESP_N,787.1443155000161,143,2,sandstone,n,1.8293173999991268
3,COND2_LABEL,790.1485213999986,144,2,,,
5,COND2_WORD,791.6652795000118,144,2,maze,,
7,RESP_N,793.0882761999965,144,2,maze,n,1.4230071000056341
2,COND1_LABEL,796.0984652000188,145,1,,,
4,COND1_WORD,797.6152589000121,145,1,flower,,
7,RESP_N,798.6442348000128,145,1,flower,n,1.0290020999964327
2,COND1_LABEL,801.6487134000054,146,1,,,
4,COND1_WORD,803.1654936000123,146,1,bell,,
7,RESP_N,804.1842507999972,146,1,bell,n,1.0187723999843001
2,COND1_LABEL,807.1991432000068,147,1,,,
4,COND1_WORD,808.715371600003,147,1,cheetah,,
6,RESP_Y,810.1192750000046,147,1,cheetah,y,1.403920000011567
3,COND2_LABEL,813.1324928000104,148,2,,,
5,COND2_WORD,814.6488806999987,148,2,lion,,
6,RESP_Y,815.5055829000194,148,2,lion,y,0.8567190000030678
3,COND2_LABEL,818.5158757000172,149,2,,,
5,COND2_WORD,820.0322982000071,149,2,pen,,
7,RESP_N,820.82034570002,149,2,pen,n,0.7880618999770377
2,COND1_LABEL,823.8324083000189,150,1,,,
4,COND1_WORD,825.3497566000151,150,1,charcoal,,
6,RESP_Y,826.2484123000177,150,1,charcoal,y,0.8986702999973204
2,COND1_LABEL,829.2659157000016,151,1,,,
4,COND1_WORD,830.7824448000174,151,1,backpack,,
6,RESP_Y,832.0542873000086,151,1,backpack,y,1.2718569000135176
2,COND1_LABEL,835.0664175999991,152,1,,,
4,COND1_WORD,836.5826434000046,152,1,baboon,,
6,RESP_Y,837.7102870000235,152,1,baboon,y,1.127686599997105
3,COND2_LABEL,840.7166136000014,153,2,,,
5,COND2_WORD,842.2328466000035,153,2,ledge,,
7,RESP_N,842.9992922000238,153,2,ledge,n,0.7664589999767486
3,COND2_LABEL,846.016219800018,154,2,,,
5,COND2_WORD,847.5329772999976,154,2,hyena,,
6,RESP_Y,849.1583043000137,154,2,hyena,y,1.6253399999986868
3,COND2_LABEL,852.1665451000154,155,2,,,
5,COND2_WORD,853.6829266000132,155,2,marble,,
7,RESP_N,854.7324035000056,155,2,marble,n,1.049491699988721
2,COND1_LABEL,857.7496696000162,156,1,,,
4,COND1_WORD,859.2663698999968,156,1,horse,,
6,RESP_Y,860.4964036000019,156,1,horse,y,1.2300502000143752
3,COND2_LABEL,863.5000819000124,157,2,,,
5,COND2_WORD,865.0165583000053,157,2,satchel,,
7,RESP_N,865.8944555000053,157,2,satchel,n,0.8779134000069462
3,COND2_LABEL,868.900308500015,158,2,,,
5,COND2_WORD,870.4168026999978,158,2,rabbit,,
6,RESP_Y,871.44230960001,158,2,rabbit,y,1.0255224000138696
3,COND2_LABEL,874.4502858000051,159,2,,,
5,COND2_WORD,875.9667994000192,159,2,truck,,
7,RESP_N,877.2383581000031,159,2,truck,n,1.2715829999942798
2,COND1_LABEL,880.2502150000073,160,1,,,
4,COND1_WORD,881.7669491000124,160,1,eagle,,
6,RESP_Y,882.8414243000152,160,1,eagle,y,1.074489500024356
2,COND1_LABEL,885.8504848000011,161,1,,,
4,COND1_WORD,887.3671923000074,161,1,coyote,,
7,RESP_N,888.3543376000016,161,1,coyote,n,0.987159000011161
2,COND1_LABEL,891.3670741000096,162,1,,,
4,COND1_WORD,892.88388020001,162,1,canvas,,
6,RESP_Y,893.793442299997,162,1,canvas,y,0.9095768999832217
2,COND1_LABEL,896.8004038000072,163,1,,,
4,COND1_WORD,898.3173927000025,163,1,basket,,
6,RESP_Y,899.3333385000005,163,1,basket,y,1.0159718999930192
