trigger_code,trigger_name,onset_time,trial_number,condition,word,response,rt
3,COND2_LABEL,0.016525300219655037,1,2,,,
5,COND2_WORD,1.5333194993436337,1,2,sandstone,,
7,RESP_N,2.2469146996736526,1,2,sandstone,n,0.713621100410819
3,COND2_LABEL,5.250115400180221,2,2,,,
5,COND2_WORD,6.766831899061799,2,2,oyster,,
6,RESP_Y,7.470958700403571,2,2,oyster,y,0.7041544988751411
2,COND1_LABEL,10.483615700155497,3,1,,,
4,COND1_WORD,12.00037849880755,3,1,cork,,
7,RESP_N,12.590907599776983,3,1,cork,n,0.5905687008053064
2,COND1_LABEL,15.600516900420189,4,1,,,
4,COND1_WORD,17.117298198863864,4,1,compass,,
6,RESP_Y,17.70289639942348,4,1,compass,y,0.5856391005218029
2,COND1_LABEL,20.717396998777986,5,1,,,
4,COND1_WORD,22.23413029871881,5,1,carpet,,
6,RESP_Y,22.846992298960686,5,1,carpet,y,0.6128720007836819
2,COND1_LABEL,25.850893000140786,6,1,,,
4,COND1_WORD,27.36759359948337,6,1,bucket,,
7,RESP_N,28.142833000048995,6,1,bucket,n,0.7752673998475075
3,COND2_LABEL,31.151158299297094,7,2,,,
5,COND2_WORD,32.667821599170566,7,2,tortoise,,
7,RESP_N,33.29498519934714,7,2,tortoise,n,0.6272052992135286
3,COND2_LABEL,36.30144600011408,8,2,,,
5,COND2_WORD,37.818091198801994,8,2,moth,,
6,RESP_Y,38.40693229995668,8,2,moth,y,0.5888691991567612
2,COND1_LABEL,41.41875999979675,9,1,,,
4,COND1_WORD,42.93571840040386,9,1,bridge,,
7,RESP_N,44.094924598932266,9,1,bridge,n,1.1592190004885197
3,COND2_LABEL,47.102505000308156,10,2,,,
5,COND2_WORD,48.619086898863316,10,2,squid,,
6,RESP_Y,49.24694569967687,10,2,squid,y,0.6279016006737947
3,COND2_LABEL,52.25245280005038,11,2,,,
5,COND2_WORD,53.769286999478936,11,2,paper,,
7,RESP_N,54.76684849895537,11,2,paper,n,0.9975911993533373
3,COND2_LABEL,57.78615099936724,12,2,,,
5,COND2_WORD,59.3028718996793,12,2,zebra,,
6,RESP_Y,60.094825599342585,12,2,zebra,y,0.791983000934124
2,COND1_LABEL,63.10295210033655,13,1,,,
4,COND1_WORD,64.61964279972017,13,1,book,,
7,RESP_N,65.11887059919536,13,1,book,n,0.4992563985288143
3,COND2_LABEL,68.13651200011373,14,2,,,
5,COND2_WORD,69.65341169945896,14,2,koala,,
6,RESP_Y,70.26281609944999,14,2,koala,y,0.6094460003077984
3,COND2_LABEL,73.26968999952078,15,2,,,
5,COND2_WORD,74.78723619878292,15,2,iguana,,
6,RESP_Y,75.62276399880648,15,2,iguana,y,0.8355457000434399
3,COND2_LABEL,78.63669089972973,16,2,,,
5,COND2_WORD,80.15362769924104,16,2,sponge,,
7,RESP_N,80.7508010994643,16,2,sponge,n,0.5972135998308659
3,COND2_LABEL,83.75376600027084,17,2,,,
5,COND2_WORD,85.27052979916334,17,2,spider,,
6,RESP_Y,85.79099410027266,17,2,spider,y,0.5205045007169247
3,COND2_LABEL,88.80390529893339,18,2,,,
5,COND2_WORD,90.32093909941614,18,2,pine,,
6,RESP_Y,91.25476449914277,18,2,pine,y,0.9338396992534399
3,COND2_LABEL,94.27084079943597,19,2,,,
5,COND2_WORD,95.78757279925048,19,2,lion,,
6,RESP_Y,96.35878439992666,19,2,lion,y,0.5712279006838799
2,COND1_LABEL,99.37095939926803,20,1,,,
4,COND1_WORD,100.88755000010133,20,1,flint,,
7,RESP_N,101.4628221001476,20,1,flint,n,0.5753013007342815
2,COND1_LABEL,104.47135329991579,21,1,,,
4,COND1_WORD,105.98802829906344,21,1,fork,,
7,RESP_N,106.81479199975729,21,1,fork,n,0.8267906997352839
3,COND2_LABEL,109.82154809869826,22,2,,,
5,COND2_WORD,111.33816289901733,22,2,scaffold,,
7,RESP_N,112.1348003000021,22,2,scaffold,n,0.796679001301527
3,COND2_LABEL,115.1383330989629,23,2,,,
5,COND2_WORD,116.65514029935002,23,2,slug,,
6,RESP_Y,117.37472620047629,23,2,slug,y,0.7196274008601904
2,COND1_LABEL,120.38858100026846,24,1,,,
4,COND1_WORD,121.90566559880972,24,1,canary,,
6,RESP_Y,122.63069029897451,24,1,canary,y,0.7250382993370295
3,COND2_LABEL,125.63881210051477,25,2,,,
5,COND2_WORD,127.15549230016768,25,2,mirror,,
7,RESP_N,127.82272839918733,25,2,mirror,n,0.6672776006162167
3,COND2_LABEL,130.83891009911895,26,2,,,
5,COND2_WORD,132.3562397994101,26,2,shoe,,
7,RESP_N,132.96676990017295,26,2,shoe,n,0.6105700004845858
2,COND1_LABEL,135.97254529967904,27,1,,,
4,COND1_WORD,137.48919639922678,27,1,broom,,
7,RESP_N,138.5666486993432,27,1,broom,n,1.0774929001927376
3,COND2_LABEL,141.57269969955087,28,2,,,
5,COND2_WORD,143.0895892996341,28,2,wallet,,
7,RESP_N,143.79092229902744,28,2,wallet,n,0.7013765014708042
3,COND2_LABEL,146.8063305001706,29,2,,,
5,COND2_WORD,148.3229367993772,29,2,parrot,,
6,RESP_Y,148.8707084003836,29,2,parrot,y,0.5478012003004551
2,COND1_LABEL,151.88995499908924,30,1,,,
4,COND1_WORD,153.40657570026815,30,1,canal,,
6,RESP_Y,153.9747147988528,30,1,canal,y,0.5681673008948565
2,COND1_LABEL,156.990443399176,31,1,,,
4,COND1_WORD,158.50665429979563,31,1,ferret,,
7,RESP_N,159.13477410003543,31,1,ferret,n,0.6281587984412909
3,COND2_LABEL,162.1402096990496,32,2,,,
5,COND2_WORD,163.65744699910283,32,2,urn,,
7,RESP_N,164.33474289998412,32,2,urn,n,0.6773375999182463
2,COND1_LABEL,167.34051849879324,33,1,,,
4,COND1_WORD,168.8572158999741,33,1,flashlight,,
7,RESP_N,169.47075329907238,33,1,flashlight,n,0.6135655995458364
2,COND1_LABEL,172.4739846996963,34,1,,,
4,COND1_WORD,173.99064369872212,34,1,bolt,,
7,RESP_N,175.5427681002766,34,1,bolt,n,1.5521502997726202
2,COND1_LABEL,178.55756109952927,35,1,,,
4,COND1_WORD,180.07429200038314,35,1,fox,,
6,RESP_Y,180.7107039000839,35,1,fox,y,0.6364409010857344
2,COND1_LABEL,183.7244009990245,36,1,,,
4,COND1_WORD,185.2411235999316,36,1,fawn,,
6,RESP_Y,185.88664009980857,36,1,fawn,y,0.6455441005527973
2,COND1_LABEL,188.8912706002593,37,1,,,
4,COND1_WORD,190.40815069898963,37,1,belt,,
7,RESP_N,191.16663189977407,37,1,belt,n,0.7584948986768723
2,COND1_LABEL,194.17489739879966,38,1,,,
4,COND1_WORD,195.69151430018246,38,1,crow,,
7,RESP_N,196.26267889887094,38,1,crow,n,0.5711809005588293
2,COND1_LABEL,199.2750183995813,39,1,,,
4,COND1_WORD,200.79181700013578,39,1,crab,,
6,RESP_Y,201.4946563001722,39,1,crab,y,0.7028686013072729
3,COND2_LABEL,204.5085045993328,40,2,,,
5,COND2_WORD,206.0259413998574,40,2,turtle,,
6,RESP_Y,206.60661179944873,40,2,turtle,y,0.5806852001696825
3,COND2_LABEL,209.6253410987556,41,2,,,
5,COND2_WORD,211.14199090003967,41,2,jaguar,,
6,RESP_Y,211.7346666995436,41,2,jaguar,y,0.5926914010196924
2,COND1_LABEL,214.74244219996035,42,1,,,
4,COND1_WORD,216.25902929902077,42,1,horse,,
7,RESP_N,216.98258169926703,42,1,horse,n,0.7235671989619732
2,COND1_LABEL,219.99254509992898,43,1,,,
4,COND1_WORD,221.5093201994896,43,1,cable,,
6,RESP_Y,222.22260629944503,43,1,cable,y,0.7133416011929512
3,COND2_LABEL,225.22606929950416,44,2,,,
5,COND2_WORD,226.74280039966106,44,2,pen,,
7,RESP_N,227.7345726992935,44,2,pen,n,0.9918018002063036
2,COND1_LABEL,230.74314669892192,45,1,,,
4,COND1_WORD,232.25962499901652,45,1,weasel,,
6,RESP_Y,233.07058489881456,45,1,weasel,y,0.810988299548626
3,COND2_LABEL,236.07649290002882,46,2,,,
5,COND2_WORD,237.59311589971185,46,2,caravan,,
6,RESP_Y,238.25460550002754,46,2,caravan,y,0.6615033000707626
3,COND2_LABEL,241.2599849998951,47,2,,,
5,COND2_WORD,242.7767708003521,47,2,marble,,
7,RESP_N,243.81456209905446,47,2,marble,n,1.0378328002989292
2,COND1_LABEL,246.82748729921877,48,1,,,
4,COND1_WORD,248.34361879900098,48,1,chipmunk,,
7,RESP_N,249.4786188993603,48,1,chipmunk,n,1.1350274998694658
2,COND1_LABEL,252.49377319961786,49,1,,,
4,COND1_WORD,254.0104564987123,49,1,alarm,,
6,RESP_Y,254.70259469933808,49,1,alarm,y,0.6921654995530844
3,COND2_LABEL,257.7107122987509,50,2,,,
5,COND2_WORD,259.2273883987218,50,2,panda,,
6,RESP_Y,259.87057000026107,50,2,panda,y,0.6432221997529268
3,COND2_LABEL,262.877488899976,51,2,,,
5,COND2_WORD,264.3941794000566,51,2,pillow,,
7,RESP_N,265.2146326005459,51,2,pillow,n,0.8204808998852968
2,COND1_LABEL,268.22796889953315,52,1,,,
4,COND1_WORD,269.7443943005055,52,1,cock,,
7,RESP_N,270.3906263001263,52,1,cock,n,0.6462492998689413
2,COND1_LABEL,273.3947652000934,53,1,,,
4,COND1_WORD,274.91132359951735,53,1,camel,,
6,RESP_Y,275.72660289891064,53,1,camel,y,0.8153077010065317
2,COND1_LABEL,278.7448461987078,54,1,,,
4,COND1_WORD,280.2615316994488,54,1,bell,,
7,RESP_N,280.91860929876566,54,1,bell,n,0.657090101391077
2,COND1_LABEL,283.9281054995954,55,1,,,
4,COND1_WORD,285.44499460048974,55,1,plant,,
6,RESP_Y,286.15861530043185,55,1,plant,y,0.7136599998921156
3,COND2_LABEL,289.1619447991252,56,2,,,
5,COND2_WORD,290.6788814999163,56,2,otter,,
6,RESP_Y,291.5104711987078,56,2,otter,y,0.8315933998674154
2,COND1_LABEL,294.5288150999695,57,1,,,
4,COND1_WORD,296.04546959884465,57,1,armadillo,,
6,RESP_Y,296.7105572987348,57,1,armadillo,y,0.6651280000805855
3,COND2_LABEL,299.72904369980097,58,2,,,
5,COND2_WORD,301.2459036000073,58,2,salmon,,
6,RESP_Y,302.0225705001503,58,2,salmon,y,0.7766809016466141
2,COND1_LABEL,305.0294768996537,59,1,,,
4,COND1_WORD,306.5459778998047,59,1,jellyfish,,
7,RESP_N,307.65449439920485,59,1,jellyfish,n,1.1085585001856089
3,COND2_LABEL,310.6627996005118,60,2,,,
5,COND2_WORD,312.179526200518,60,2,magpie,,
6,RESP_Y,313.0945180989802,60,2,magpie,y,0.9150027986615896
2,COND1_LABEL,316.11296970024705,61,1,,,
4,COND1_WORD,317.6299655996263,61,1,fossil,,
7,RESP_N,318.7025914993137,61,1,fossil,n,1.072638500481844
2,COND1_LABEL,321.71314659900963,62,1,,,
4,COND1_WORD,323.22998889908195,62,1,heron,,
7,RESP_N,324.1024997998029,62,1,heron,n,0.8725380003452301
3,COND2_LABEL,327.1134144999087,63,2,,,
5,COND2_WORD,328.63015479967,63,2,stamp,,
7,RESP_N,329.4625096004456,63,2,stamp,n,0.8323954995721579
2,COND1_LABEL,332.480654200539,64,1,,,
4,COND1_WORD,333.9969023000449,64,1,crater,,
6,RESP_Y,334.9825238995254,64,1,crater,y,0.9856349993497133
3,COND2_LABEL,337.9971537999809,65,2,,,
5,COND2_WORD,339.5137779004872,65,2,rattlesnake,,
6,RESP_Y,340.8144335988909,65,2,rattlesnake,y,1.3006979003548622
3,COND2_LABEL,343.83076119981706,66,2,,,
5,COND2_WORD,345.347386199981,66,2,shelf,,
7,RESP_N,345.93450989946723,66,2,shelf,n,0.5871523004025221
3,COND2_LABEL,348.94762519933283,67,2,,,
5,COND2_WORD,350.4642491005361,67,2,pier,,
7,RESP_N,351.63044049963355,67,2,pier,n,1.1662469003349543
2,COND1_LABEL,354.64834499917924,68,1,,,
4,COND1_WORD,356.16423450037837,68,1,cassette,,
6,RESP_Y,356.9424341991544,68,1,cassette,y,0.7782166991382837
3,COND2_LABEL,359.9480625987053,69,2,,,
5,COND2_WORD,361.4648963995278,69,2,kitchen,,
7,RESP_N,362.462416799739,69,2,kitchen,n,0.9975350014865398
2,COND1_LABEL,365.48159229941666,70,1,,,
4,COND1_WORD,366.9983486998826,70,1,elk,,
7,RESP_N,367.8864133004099,70,1,elk,n,0.8880934007465839
3,COND2_LABEL,370.8983564991504,71,2,,,
5,COND2_WORD,372.41502519883215,71,2,shark,,
6,RESP_Y,372.9344516992569,71,2,shark,y,0.5194437000900507
3,COND2_LABEL,375.9486200995743,72,2,,,
5,COND2_WORD,377.4650269988924,72,2,mole,,
6,RESP_Y,378.0384177993983,72,2,mole,y,0.5734179001301527
3,COND2_LABEL,381.04892209917307,73,2,,,
5,COND2_WORD,382.56570749916136,73,2,llama,,
6,RESP_Y,383.3503874000162,73,2,llama,y,0.7846942003816366
3,COND2_LABEL,386.36568469926715,74,2,,,
5,COND2_WORD,387.88245869986713,74,2,passport,,
7,RESP_N,388.6384532004595,74,2,passport,n,0.7560357004404068
3,COND2_LABEL,391.649215798825,75,2,,,
5,COND2_WORD,393.1660255994648,75,2,owl,,
6,RESP_Y,393.822373598814,75,2,owl,y,0.6563760992139578
2,COND1_LABEL,396.8329856991768,76,1,,,
4,COND1_WORD,398.34950800053775,76,1,coyote,,
7,RESP_N,399.134313698858,76,1,coyote,n,0.7848351988941431
2,COND1_LABEL,402.14969939924777,77,1,,,
4,COND1_WORD,403.66636199876666,77,1,hook,,
7,RESP_N,404.4864339996129,77,1,hook,n,0.82010000012815
2,COND1_LABEL,407.50001019984484,78,1,,,
4,COND1_WORD,409.0163800995797,78,1,flower,,
7,RESP_N,409.7183400988579,78,1,flower,n,0.7019769009202719
3,COND2_LABEL,412.7333428002894,79,2,,,
5,COND2_WORD,414.25019959919155,79,2,newt,,
6,RESP_Y,416.43833899870515,79,2,newt,y,2.1882009990513325
2,COND1_LABEL,419.4502968993038,80,1,,,
4,COND1_WORD,420.9671768993139,80,1,emu,,
7,RESP_N,421.95838129892945,80,1,emu,n,0.9912344999611378
2,COND1_LABEL,424.96732730045915,81,1,,,
4,COND1_WORD,426.4842860996723,81,1,alpaca,,
6,RESP_Y,427.1823843996972,81,1,alpaca,y,0.6980878002941608
3,COND2_LABEL,430.2008042987436,82,2,,,
5,COND2_WORD,431.717471299693,82,2,vase,,
7,RESP_N,432.67031520046294,82,2,vase,n,0.9528720993548632
3,COND2_LABEL,435.68449799902737,83,2,,,
5,COND2_WORD,437.20108399912715,83,2,tool,,
7,RESP_N,437.8543200995773,83,2,tool,n,0.6532506998628378
2,COND1_LABEL,440.86785299889743,84,1,,,
4,COND1_WORD,442.38440859876573,84,1,alligator,,
6,RESP_Y,442.9903884995729,84,1,alligator,y,0.6060064993798733
2,COND1_LABEL,446.00132159888744,85,1,,,
4,COND1_WORD,447.5181258004159,85,1,dome,,
7,RESP_N,447.99830020032823,85,1,dome,n,0.48020320013165474
2,COND1_LABEL,451.0016243997961,86,1,,,
4,COND1_WORD,452.5183608997613,86,1,disc,,
7,RESP_N,453.0942870993167,86,1,disc,n,0.5759414993226528
2,COND1_LABEL,456.1017496995628,87,1,,,
4,COND1_WORD,457.61856919899583,87,1,beetle,,
7,RESP_N,458.18238960020244,87,1,beetle,n,0.5638469997793436
3,COND2_LABEL,461.18542720004916,88,2,,,
5,COND2_WORD,462.7020181994885,88,2,kangaroo,,
6,RESP_Y,463.47029330022633,88,2,kangaroo,y,0.7682927995920181
3,COND2_LABEL,466.4851877000183,89,2,,,
5,COND2_WORD,468.0022940002382,89,2,rug,,
7,RESP_N,468.6222446989268,89,2,rug,n,0.6199805997312069
2,COND1_LABEL,471.63569390028715,90,1,,,
4,COND1_WORD,473.1525097005069,90,1,grasshopper,,
6,RESP_Y,473.8782577998936,90,1,grasshopper,y,0.7257784008979797
2,COND1_LABEL,476.88587990030646,91,1,,,
4,COND1_WORD,478.4030466005206,91,1,comb,,
7,RESP_N,479.26223240047693,91,1,comb,n,0.8592016007751226
2,COND1_LABEL,482.2696812991053,92,1,,,
4,COND1_WORD,483.7861611992121,92,1,bamboo,,
6,RESP_Y,484.66226179897785,92,1,bamboo,y,0.876129399985075
3,COND2_LABEL,487.6697271987796,93,2,,,
5,COND2_WORD,489.1865088995546,93,2,satchel,,
7,RESP_N,489.8623185995966,93,2,satchel,n,0.6758378986269236
3,COND2_LABEL,492.86989899910986,94,2,,,
5,COND2_WORD,494.3865833990276,94,2,mesh,,
7,RESP_N,494.9502510987222,94,2,mesh,n,0.5636828001588583
3,COND2_LABEL,497.95349160023034,95,2,,,
5,COND2_WORD,499.47019989974797,95,2,calendar,,
7,RESP_N,500.34224670007825,95,2,calendar,n,0.8720759004354477
3,COND2_LABEL,503.35406539961696,96,2,,,
5,COND2_WORD,504.87034519948065,96,2,mantis,,
6,RESP_Y,505.55823870003223,96,2,mantis,y,0.6879340000450611
3,COND2_LABEL,508.5705065988004,97,2,,,
5,COND2_WORD,510.08734340034425,97,2,swan,,
6,RESP_Y,510.81437739916146,97,2,swan,y,0.7270610984414816
2,COND1_LABEL,513.8207683991641,98,1,,,
4,COND1_WORD,515.3374351002276,98,1,coral,,
6,RESP_Y,515.982347600162,98,1,coral,y,0.6449276991188526
3,COND2_LABEL,518.9875432997942,99,2,,,
5,COND2_WORD,520.5042486004531,99,2,panther,,
6,RESP_Y,521.1261870991439,99,2,panther,y,0.6219676993787289
2,COND1_LABEL,524.137808399275,100,1,,,
4,COND1_WORD,525.6545119993389,100,1,flame,,
6,RESP_Y,526.4301979988813,100,1,flame,y,0.7757256999611855
3,COND2_LABEL,529.504830699414,101,2,,,
5,COND2_WORD,531.0215572994202,101,2,mouse,,
6,RESP_Y,531.6622755993158,101,2,mouse,y,0.6407482009381056
3,COND2_LABEL,534.6715798005462,102,2,,,
5,COND2_WORD,536.188313499093,102,2,marlin,,
6,RESP_Y,536.9742107987404,102,2,marlin,y,0.7859118990600109
2,COND1_LABEL,539.9889016989619,103,1,,,
4,COND1_WORD,541.5049417987466,103,1,duck,,
7,RESP_N,542.1501911003143,103,1,duck,n,0.6452639009803534
3,COND2_LABEL,545.1559202000499,104,2,,,
5,COND2_WORD,546.6719995997846,104,2,sand,,
7,RESP_N,547.3741578999907,104,2,sand,n,0.7021997012197971
2,COND1_LABEL,550.3888900987804,105,1,,,
4,COND1_WORD,551.9055668991059,105,1,cactus,,
6,RESP_Y,552.5261342003942,105,1,cactus,y,0.6205964013934135
3,COND2_LABEL,555.5392541997135,106,2,,,
5,COND2_WORD,557.0557057987899,106,2,tent,,
7,RESP_N,557.6061898991466,106,2,tent,n,0.550500700250268
2,COND1_LABEL,560.6228414997458,107,1,,,
4,COND1_WORD,562.1392643991858,107,1,avocado,,
6,RESP_Y,562.6781433988363,107,1,avocado,y,0.538935698568821
3,COND2_LABEL,565.6895276997238,108,2,,,
5,COND2_WORD,567.20616629906,108,2,gate,,
6,RESP_Y,567.8541288003325,108,2,gate,y,0.6479914989322424
2,COND1_LABEL,570.8727582991123,109,1,,,
4,COND1_WORD,572.3894271999598,109,1,fish,,
7,RESP_N,572.9181605987251,109,1,fish,n,0.5287603009492159
2,COND1_LABEL,575.9232342001051,110,1,,,
4,COND1_WORD,577.4399923998863,110,1,fern,,
7,RESP_N,578.1421018000692,110,1,fern,n,0.7021246012300253
2,COND1_LABEL,581.1568723004311,111,1,,,
4,COND1_WORD,582.6735928002745,111,1,baboon,,
6,RESP_Y,583.4701217003167,111,1,baboon,y,0.796544199809432
3,COND2_LABEL,586.4735701996833,112,2,,,
5,COND2_WORD,587.9908338990062,112,2,ledge,,
7,RESP_N,588.582122599706,112,2,ledge,n,0.59132120013237
2,COND1_LABEL,591.5903567988425,113,1,,,
4,COND1_WORD,593.1078737992793,113,1,carriage,,
6,RESP_Y,593.8141978997737,113,1,carriage,y,0.7063388992100954
3,COND2_LABEL,596.8240312989801,114,2,,,
5,COND2_WORD,598.3407895993441,114,2,wasp,,
6,RESP_Y,598.9340728987008,114,2,wasp,y,0.5933123007416725
2,COND1_LABEL,601.9411017987877,115,1,,,
4,COND1_WORD,603.4578178990632,115,1,gem,,
7,RESP_N,604.0861290991306,115,1,gem,n,0.6283238995820284
2,COND1_LABEL,607.0910621993244,116,1,,,
4,COND1_WORD,608.6077938005328,116,1,brush,,
7,RESP_N,609.1341520994902,116,1,brush,n,0.5263717994093895
3,COND2_LABEL,612.1418596990407,117,2,,,
5,COND2_WORD,613.6579160001129,117,2,net,,
7,RESP_N,614.6221019998193,117,2,net,n,0.9642441999167204
2,COND1_LABEL,617.624792098999,118,1,,,
4,COND1_WORD,619.1418910995126,118,1,cobra,,
6,RESP_Y,619.8300771992654,118,1,cobra,y,0.6882002986967564
2,COND1_LABEL,622.8416935000569,119,1,,,
4,COND1_WORD,624.3584332000464,119,1,dog,,
7,RESP_N,625.1340610999614,119,1,dog,n,0.775644700974226
2,COND1_LABEL,628.1418561991304,120,1,,,
4,COND1_WORD,629.6587058994919,120,1,dragonfly,,
6,RESP_Y,630.4380826000124,120,1,dragonfly,y,0.77939079888165
2,COND1_LABEL,633.442089099437,121,1,,,
4,COND1_WORD,634.9593323990703,121,1,barrel,,
6,RESP_Y,635.6940726004541,121,1,barrel,y,0.7347727008163929
2,COND1_LABEL,638.7090610992163,122,1,,,
4,COND1_WORD,640.2258898988366,122,1,dove,,
7,RESP_N,640.7981336005032,122,1,dove,n,0.5722694993019104
2,COND1_LABEL,643.8097882997245,123,1,,,
4,COND1_WORD,645.3259915988892,123,1,fuse,,
7,RESP_N,645.918046599254,123,1,fuse,n,0.5920831002295017
2,COND1_LABEL,648.926087198779,124,1,,,
4,COND1_WORD,650.4425176996738,124,1,fence,,
7,RESP_N,650.9900663997978,124,1,fence,n,0.5475781988352537
3,COND2_LABEL,653.9929820988327,125,2,,,
5,COND2_WORD,655.5095929000527,125,2,manta,,
6,RESP_Y,656.5900242999196,125,2,manta,y,1.080477099865675
3,COND2_LABEL,659.5931914001703,126,2,,,
5,COND2_WORD,661.1100756004453,126,2,snipe,,
6,RESP_Y,662.9101362992078,126,2,snipe,y,1.8000742997974157
3,COND2_LABEL,665.9266692996025,127,2,,,
5,COND2_WORD,667.443837499246,127,2,pigeon,,
6,RESP_Y,668.1180466003716,127,2,pigeon,y,0.6742227990180254
3,COND2_LABEL,671.1268594004214,128,2,,,
5,COND2_WORD,672.6438076999038,128,2,maze,,
7,RESP_N,673.6619776990265,128,2,maze,n,1.0181948989629745
2,COND1_LABEL,676.6771907992661,129,1,,,
4,COND1_WORD,678.1938796993345,129,1,frog,,
6,RESP_Y,678.7820025999099,129,1,frog,y,0.5881516002118587
3,COND2_LABEL,681.7939887996763,130,2,,,
5,COND2_WORD,683.3111518993974,130,2,insect,,
6,RESP_Y,683.9420414995402,130,2,insect,y,0.6309054996818304
3,COND2_LABEL,686.9608674999326,131,2,,,
5,COND2_WORD,688.4774999003857,131,2,buck,,
6,RESP_Y,689.3741285987198,131,2,buck,y,0.8966553006321192
3,COND2_LABEL,692.3777844998986,132,2,,,
5,COND2_WORD,693.8945659995079,132,2,orb,,
7,RESP_N,694.5660471990705,132,2,orb,n,0.6715210992842913
2,COND1_LABEL,697.5780884996057,133,1,,,
4,COND1_WORD,699.0945992004126,133,1,cargo,,
6,RESP_Y,699.8861196991056,133,1,cargo,y,0.7915474008768797
2,COND1_LABEL,702.8948630001396,134,1,,,
4,COND1_WORD,704.411526799202,134,1,basket,,
6,RESP_Y,705.1739501003176,134,1,basket,y,0.7624647002667189
2,COND1_LABEL,708.1785369999707,135,1,,,
4,COND1_WORD,709.6950954999775,135,1,badge,,
6,RESP_Y,710.6059269998223,135,1,badge,y,0.9108595997095108
2,COND1_LABEL,713.6118585001677,136,1,,,
4,COND1_WORD,715.1285603996366,136,1,albatross,,
6,RESP_Y,715.717986099422,136,1,albatross,y,0.5894559994339943
3,COND2_LABEL,718.7288252003491,137,2,,,
5,COND2_WORD,720.245472298935,137,2,starfish,,
6,RESP_Y,720.909929798916,137,2,starfish,y,0.6644995007663965
2,COND1_LABEL,723.9289330989122,138,1,,,
4,COND1_WORD,725.4455920998007,138,1,crayfish,,
6,RESP_Y,726.0059179998934,138,1,crayfish,y,0.560351800173521
3,COND2_LABEL,729.0125379990786,139,2,,,
5,COND2_WORD,730.5293281003833,139,2,monkey,,
6,RESP_Y,731.5499005001038,139,2,monkey,y,1.0205979011952877
2,COND1_LABEL,734.5628001987934,140,1,,,
4,COND1_WORD,736.0794674996287,140,1,box,,
7,RESP_N,736.7019059993327,140,1,box,n,0.6224801000207663
2,COND1_LABEL,739.7129784990102,141,1,,,
4,COND1_WORD,741.2293614000082,141,1,hummingbird,,
7,RESP_N,742.1260158997029,141,1,hummingbird,n,0.8966699987649918
3,COND2_LABEL,745.1298727989197,142,2,,,
5,COND2_WORD,746.6465133987367,142,2,trough,,
7,RESP_N,747.565937500447,142,2,trough,n,0.9194837994873524
2,COND1_LABEL,750.5799527987838,143,1,,,
4,COND1_WORD,752.0968313999474,143,1,banana,,
6,RESP_Y,752.6778788994998,143,1,banana,y,0.5810765996575356
2,COND1_LABEL,755.6969910003245,144,1,,,
4,COND1_WORD,757.2137877997011,144,1,gnu,,
7,RESP_N,757.8219718001783,144,1,gnu,n,0.6082095000892878
3,COND2_LABEL,760.8308317996562,145,2,,,
5,COND2_WORD,762.3472709991038,145,2,lava,,
7,RESP_N,763.4699007999152,145,2,lava,n,1.122672401368618
2,COND1_LABEL,766.4806772992015,146,1,,,
4,COND1_WORD,767.997442400083,146,1,door,,
7,RESP_N,768.6538615003228,146,1,door,n,0.656445499509573
2,COND1_LABEL,771.6645510997623,147,1,,,
4,COND1_WORD,773.1810119003057,147,1,diamond,,
6,RESP_Y,773.8299141004682,147,1,diamond,y,0.6489017996937037
2,COND1_LABEL,776.8477768003941,148,1,,,
4,COND1_WORD,778.3647085987031,148,1,dingo,,
7,RESP_N,778.9739004988223,148,1,dingo,n,0.6092065013945103
2,COND1_LABEL,781.9813804998994,149,1,,,
4,COND1_WORD,783.4981194995344,149,1,camera,,
6,RESP_Y,784.1338334996253,149,1,camera,y,0.6357527002692223
3,COND2_LABEL,787.1481809001416,150,2,,,
5,COND2_WORD,788.6649536993355,150,2,furnace,,
7,RESP_N,789.3658704999834,150,2,furnace,n,0.7009478993713856
3,COND2_LABEL,792.3816759996116,151,2,,,
5,COND2_WORD,793.8984593003988,151,2,flask,,
7,RESP_N,794.5098892003298,151,2,flask,n,0.6114585008472204
3,COND2_LABEL,797.515285698697,152,2,,,
5,COND2_WORD,799.0320605002344,152,2,hammer,,
7,RESP_N,799.8057819996029,152,2,hammer,n,0.7737357001751661
3,COND2_LABEL,802.8158353995532,153,2,,,
5,COND2_WORD,804.3321754988283,153,2,shard,,
7,RESP_N,805.0218625999987,153,2,shard,n,0.6897272989153862
2,COND1_LABEL,808.0324697997421,154,1,,,
4,COND1_WORD,809.5491121001542,154,1,cheetah,,
6,RESP_Y,810.5259282998741,154,1,cheetah,y,0.9768448993563652
3,COND2_LABEL,813.5323143992573,155,2,,,
5,COND2_WORD,815.0498952995986,155,2,lynx,,
6,RESP_Y,815.717791698873,155,2,lynx,y,0.6679114010185003
3,COND2_LABEL,818.7327960990369,156,2,,,
5,COND2_WORD,820.249448299408,156,2,mop,,
7,RESP_N,820.9418361000717,156,2,mop,n,0.6924185995012522
3,COND2_LABEL,823.9496219996363,157,2,,,
5,COND2_WORD,825.4664104003459,157,2,guitar,,
7,RESP_N,826.413830999285,157,2,guitar,n,0.9474615007638931
2,COND1_LABEL,829.4167570993304,158,1,,,
4,COND1_WORD,830.9331365991384,158,1,rat,,
6,RESP_Y,831.4617413002998,158,1,rat,y,0.5286203995347023
3,COND2_LABEL,834.4666582997888,159,2,,,
5,COND2_WORD,835.983500899747,159,2,hawk,,
6,RESP_Y,836.5498551987112,159,2,hawk,y,0.5663661006838083
2,COND1_LABEL,839.5672161001712,160,1,,,
4,COND1_WORD,841.0836209990084,160,1,flamingo,,
6,RESP_Y,841.6618083994836,160,1,flamingo,y,0.578201400116086
3,COND2_LABEL,844.667195700109,161,2,,,
5,COND2_WORD,846.1838207002729,161,2,mug,,
7,RESP_N,846.8698696997017,161,2,mug,n,0.6860881987959146
3,COND2_LABEL,849.8839402999729,162,2,,,
5,COND2_WORD,851.4010239988565,162,2,galaxy,,
7,RESP_N,852.4297690987587,162,2,galaxy,n,1.0287580005824566
3,COND2_LABEL,855.4343065991998,163,2,,,
5,COND2_WORD,856.9509523995221,163,2,knife,,
7,RESP_N,857.6057935990393,163,2,knife,n,0.6548711005598307
2,COND1_LABEL,860.6178256999701,164,1,,,
4,COND1_WORD,862.1344250999391,164,1,bicycle,,
7,RESP_N,862.7097931988537,164,1,bicycle,n,0.5754094999283552
2,COND1_LABEL,865.717958400026,165,1,,,
4,COND1_WORD,867.2345864996314,165,1,catfish,,
6,RESP_Y,867.7417590990663,165,1,catfish,y,0.5072026010602713
3,COND2_LABEL,870.7513740994036,166,2,,,
5,COND2_WORD,872.2682402003556,166,2,pufferfish,,
6,RESP_Y,872.8537082001567,166,2,pufferfish,y,0.5855090990662575
2,COND1_LABEL,875.8685225993395,167,1,,,
4,COND1_WORD,877.3850656989962,167,1,chain,,
6,RESP_Y,877.869718099013,167,1,chain,y,0.4846682995557785
3,COND2_LABEL,880.8851273991168,168,2,,,
5,COND2_WORD,882.4018823001534,168,2,octopus,,
6,RESP_Y,883.1417011003941,168,2,octopus,y,0.7398483008146286
3,COND2_LABEL,886.1520282998681,169,2,,,
5,COND2_WORD,887.6685962993652,169,2,tapir,,
7,RESP_N,888.2697671987116,169,2,tapir,n,0.6011988986283541
2,COND1_LABEL,891.2857754994184,170,1,,,
4,COND1_WORD,892.8023409005255,170,1,bison,,
7,RESP_N,893.8217016998678,170,1,bison,n,1.019386800006032
2,COND1_LABEL,896.8358228001744,171,1,,,
4,COND1_WORD,898.3525635991246,171,1,fish,,
7,RESP_N,898.9896674994379,171,1,fish,n,0.6371451988816261
