trigger_code,trigger_name,onset_time,trial_number,condition,word,response,rt
3,COND2_LABEL,0.01783142497879453,1,2,,,
5,COND2_WORD,1.7074250049772672,1,2,bottle,,
7,RESP_N,3.01326925700414,1,2,bottle,n,1.3058044190111104
1,FIXATION,3.022763460990973,1,2,bottle,n,1.3058044190111104
3,COND2_LABEL,6.034963276004419,2,2,,,
5,COND2_WORD,7.546764640981564,2,2,crow,,
6,RESP_Y,9.003809929999989,2,2,crow,y,1.4571449990035035
1,FIXATION,9.01574821799295,2,2,crow,y,1.4571449990035035
2,COND1_LABEL,12.031913020997308,3,1,,,
4,COND1_WORD,13.551116638001986,3,1,map,,
6,RESP_Y,17.76574025300215,3,1,map,y,4.2146249169891234
1,FIXATION,17.77450444200076,3,1,map,y,4.2146249169891234
3,COND2_LABEL,20.788781937997555,4,2,,,
5,COND2_WORD,22.30047034099698,4,2,dolphin,,
6,RESP_Y,23.301979048992507,4,2,dolphin,y,1.001605458004633
1,FIXATION,23.310420258989325,4,2,dolphin,y,1.001605458004633
2,COND1_LABEL,26.323015903995838,5,1,,,
4,COND1_WORD,27.837761251983466,5,1,shark,,
6,RESP_Y,28.40781017698464,5,1,shark,y,0.5706128719903063
1,FIXATION,28.41604862897657,5,1,shark,y,0.5706128719903063
2,COND1_LABEL,31.42822184698889,6,1,,,
4,COND1_WORD,32.94168153099599,6,1,backpack,,
6,RESP_Y,34.27789394799038,6,1,backpack,y,1.3362155499926303
1,FIXATION,34.28661338597885,6,1,backpack,y,1.3362155499926303
3,COND2_LABEL,37.3004237569985,7,2,,,
5,COND2_WORD,38.816869974980364,7,2,gibbon,,
6,RESP_Y,39.75159670098219,7,2,gibbon,y,0.9347206209786236
1,FIXATION,39.75721381598851,7,2,gibbon,y,0.9347206209786236
2,COND1_LABEL,42.76954965398181,8,1,,,
4,COND1_WORD,44.282910501991864,8,1,water,,
6,RESP_Y,44.87667682400206,8,1,water,y,0.5937281869992148
1,FIXATION,44.885094139986904,8,1,water,y,0.5937281869992148
2,COND1_LABEL,47.899694784980966,9,1,,,
4,COND1_WORD,49.416111006983556,9,1,wallet,,
6,RESP_Y,50.39158739699633,9,1,wallet,y,0.975476758001605
1,FIXATION,50.39995459700003,9,1,wallet,y,0.975476758001605
3,COND2_LABEL,53.41577395499917,10,2,,,
5,COND2_WORD,54.9336119859945,10,2,ivy,,
7,RESP_N,56.96825592400273,10,2,ivy,n,2.034636563999811
1,FIXATION,56.97673200099962,10,2,ivy,n,2.034636563999811
2,COND1_LABEL,59.989320391003275,11,1,,,
4,COND1_WORD,61.50853202998405,11,1,camel,,
6,RESP_Y,62.177359303983394,11,1,camel,y,0.6688287340220995
1,FIXATION,62.185667318000924,11,1,camel,y,0.6688287340220995
2,COND1_LABEL,65.19880661999923,12,1,,,
4,COND1_WORD,66.71496261897846,12,1,lamp,,
6,RESP_Y,67.29981047997717,12,1,lamp,y,0.5848395740031265
1,FIXATION,67.30561916797888,12,1,lamp,y,0.5848395740031265
3,COND2_LABEL,70.31868748599663,13,2,,,
5,COND2_WORD,71.83316787000513,13,2,chimney,,
7,RESP_N,75.92571449599927,13,2,chimney,n,4.09253661200637
1,FIXATION,75.9353089229844,13,2,chimney,n,4.09253661200637
3,COND2_LABEL,78.94822156699956,14,2,,,
5,COND2_WORD,80.46651323098922,14,2,mosquito,,
6,RESP_Y,81.10388708399842,14,2,mosquito,y,0.6378451380005572
1,FIXATION,81.1159244349983,14,2,mosquito,y,0.6378451380005572
3,COND2_LABEL,84.13141357098357,15,2,,,
5,COND2_WORD,85.64843089698115,15,2,robin,,
6,RESP_Y,87.39403488198877,15,2,robin,y,1.7456117179826833
1,FIXATION,87.40249904498341,15,2,robin,y,1.7456117179826833
2,COND1_LABEL,90.41506715200376,16,1,,,
4,COND1_WORD,91.93930628299131,16,1,hyena,,
6,RESP_Y,92.60980769598973,16,1,hyena,y,0.6704997880151495
1,FIXATION,92.61909193298197,16,1,hyena,y,0.6704997880151495
2,COND1_LABEL,95.63153969999985,17,1,,,
4,COND1_WORD,97.14688089399715,17,1,puma,,
6,RESP_Y,97.75446345398086,17,1,puma,y,0.6075870500062592
1,FIXATION,97.7664390860009,17,1,puma,y,0.6075870500062592
3,COND2_LABEL,100.78340677300002,18,2,,,
5,COND2_WORD,102.29666698299116,18,2,drill,,
7,RESP_N,103.21724167698994,18,2,drill,n,0.9205674179829657
1,FIXATION,103.22574793698732,18,2,drill,n,0.9205674179829657
3,COND2_LABEL,106.23746227499214,19,2,,,
5,COND2_WORD,107.75137044099392,19,2,owl,,
6,RESP_Y,108.72747460199753,19,2,owl,y,0.9760942430002615
1,FIXATION,108.73324719100492,19,2,owl,y,0.9760942430002615
3,COND2_LABEL,111.7507464090013,20,2,,,
5,COND2_WORD,113.26445179598522,20,2,dog,,
6,RESP_Y,114.5310730249912,20,2,dog,y,1.2666173540055752
1,FIXATION,114.53949876598199,20,2,dog,y,1.2666173540055752
3,COND2_LABEL,117.55239592498401,21,2,,,
5,COND2_WORD,119.06489556099405,21,2,bell,,
7,RESP_N,120.31496210000478,21,2,bell,n,1.2500745430006646
1,FIXATION,120.3236337879789,21,2,bell,n,1.2500745430006646
3,COND2_LABEL,123.3408086480049,22,2,,,
5,COND2_WORD,124.85411140898941,22,2,octopus,,
6,RESP_Y,125.92259958098293,22,2,octopus,y,1.0684806679782923
1,FIXATION,125.9312444459938,22,2,octopus,y,1.0684806679782923
3,COND2_LABEL,128.94836205698084,23,2,,,
5,COND2_WORD,130.46355832999689,23,2,rose,,
7,RESP_N,131.00101302898838,23,2,rose,n,0.5374575289897621
1,FIXATION,131.01249152500532,23,2,rose,n,0.5374575289897621
2,COND1_LABEL,134.03372290998232,24,1,,,
4,COND1_WORD,135.54867008698056,24,1,guitar,,
6,RESP_Y,137.38009527599206,24,1,guitar,y,1.8314334559836425
1,FIXATION,137.3885486839863,24,1,guitar,y,1.8314334559836425
2,COND1_LABEL,140.4009063039848,25,1,,,
4,COND1_WORD,141.91382291697664,25,1,curtain,,
6,RESP_Y,142.5434616220009,25,1,curtain,y,0.6296332039928529
1,FIXATION,142.54893671299214,25,1,curtain,y,0.6296332039928529
2,COND1_LABEL,145.5680242170056,26,1,,,
4,COND1_WORD,147.0825115289772,26,1,road,,
6,RESP_Y,147.60626193799544,26,1,road,y,0.5237527340068482
1,FIXATION,147.6121812039928,26,1,road,y,0.5237527340068482
2,COND1_LABEL,150.625131348992,27,1,,,
4,COND1_WORD,152.13880676098051,27,1,alligator,,
6,RESP_Y,153.301175280998,27,1,alligator,y,1.1623551849916112
1,FIXATION,153.3070532809943,27,1,alligator,y,1.1623551849916112
3,COND2_LABEL,156.3205971919815,28,2,,,
5,COND2_WORD,157.83310836399323,28,2,otter,,
6,RESP_Y,158.43475065397797,28,2,otter,y,0.6016372830199543
1,FIXATION,158.440449436981,28,2,otter,y,0.6016372830199543
3,COND2_LABEL,161.45448171999305,29,2,,,
5,COND2_WORD,162.9820834529819,29,2,bus,,
7,RESP_N,163.64302371500526,29,2,bus,n,0.6609513060247991
1,FIXATION,163.65123665798455,29,2,bus,n,0.6609513060247991
3,COND2_LABEL,166.6635692169948,30,2,,,
5,COND2_WORD,168.18155234400183,30,2,tiger,,
6,RESP_Y,169.30038891898585,30,2,tiger,y,1.1188343690009788
1,FIXATION,169.3125985499937,30,2,tiger,y,1.1188343690009788
3,COND2_LABEL,172.3289643850003,31,2,,,
5,COND2_WORD,173.84668836399214,31,2,duck,,
6,RESP_Y,180.34660628100391,31,2,duck,y,6.499920725997072
1,FIXATION,180.36314601800404,31,2,duck,y,6.499920725997072
3,COND2_LABEL,183.38049700899865,32,2,,,
5,COND2_WORD,184.89617193999584,32,2,brick,,
7,RESP_N,186.7768026079866,32,2,brick,n,1.880632885004161
1,FIXATION,186.78553449097672,32,2,brick,n,1.880632885004161
2,COND1_LABEL,189.7973646329774,33,1,,,
4,COND1_WORD,191.3146211860003,33,1,swan,,
6,RESP_Y,191.8190834769921,33,1,swan,y,0.5048745030071586
1,FIXATION,191.83125319099054,33,1,swan,y,0.5048745030071586
2,COND1_LABEL,194.84753220400307,34,1,,,
4,COND1_WORD,196.36119007898378,34,1,alarm,,
6,RESP_Y,197.98164072597865,34,1,alarm,y,1.6204428630007897
1,FIXATION,197.99044991799747,34,1,alarm,y,1.6204428630007897
3,COND2_LABEL,201.00277893498424,35,2,,,
5,COND2_WORD,202.51645324900164,35,2,bench,,
7,RESP_N,203.15324217500165,35,2,bench,n,0.6372478969860822
1,FIXATION,203.16549188198405,35,2,bench,n,0.6372478969860822
2,COND1_LABEL,206.18109244998777,36,1,,,
4,COND1_WORD,207.69764851097716,36,1,vase,,
6,RESP_Y,208.13985800699447,36,1,vase,y,0.44220970099559054
1,FIXATION,208.1481848859985,36,1,vase,y,0.44220970099559054
3,COND2_LABEL,211.16422681999393,37,2,,,
5,COND2_WORD,212.67980171600357,37,2,comb,,
7,RESP_N,214.4730940760055,37,2,comb,n,1.7937039849930443
1,FIXATION,214.478780534002,37,2,comb,n,1.7937039849930443
3,COND2_LABEL,217.4974672299868,38,2,,,
5,COND2_WORD,219.0114625429851,38,2,button,,
7,RESP_N,219.6744131949963,38,2,button,n,0.6629489150072914
1,FIXATION,219.68318805500166,38,2,button,n,0.6629489150072914
3,COND2_LABEL,222.6977814709826,39,2,,,
5,COND2_WORD,224.2120161310013,39,2,button,,
7,RESP_N,225.09465981597896,39,2,button,n,0.8826399059907999
1,FIXATION,225.10368980298517,39,2,button,n,0.8826399059907999
2,COND1_LABEL,228.115727951983,40,1,,,
4,COND1_WORD,229.6288401389902,40,1,crane,,
6,RESP_Y,230.4437750579964,40,1,crane,y,0.8149232610012405
1,FIXATION,230.45281033500214,40,1,crane,y,0.8149232610012405
3,COND2_LABEL,233.46531551599037,41,2,,,
5,COND2_WORD,234.97780730898376,41,2,net,,
7,RESP_N,235.74701092697796,41,2,net,n,0.769195105007384
1,FIXATION,235.75266254099552,41,2,net,n,0.769195105007384
3,COND2_LABEL,238.76475562498672,42,2,,,
5,COND2_WORD,240.2784453749773,42,2,note,,
7,RESP_N,241.65481167897815,42,2,note,n,1.3763805550115649
1,FIXATION,241.66049896599725,42,2,note,n,1.3763805550115649
2,COND1_LABEL,244.67408470698865,43,1,,,
4,COND1_WORD,246.19259045500075,43,1,ape,,
6,RESP_Y,246.6756297389802,43,1,ape,y,0.48313479000353254
1,FIXATION,246.68426899600308,43,1,ape,y,0.48313479000353254
3,COND2_LABEL,249.69770113698905,44,2,,,
5,COND2_WORD,251.21214862700435,44,2,horn,,
7,RESP_N,251.89843093199306,44,2,horn,n,0.6862768169958144
1,FIXATION,251.90415647800546,44,2,horn,n,0.6862768169958144
3,COND2_LABEL,254.91672414698405,45,2,,,
5,COND2_WORD,256.42965624900535,45,2,moss,,
7,RESP_N,259.76173273299355,45,2,moss,n,3.332069363008486
1,FIXATION,259.77028063798207,45,2,moss,n,3.332069363008486
2,COND1_LABEL,262.78389656799845,46,1,,,
4,COND1_WORD,264.2969782909786,46,1,tarantula,,
6,RESP_Y,266.78423203597777,46,1,tarantula,y,2.4877159949974157
1,FIXATION,266.7927686419862,46,1,tarantula,y,2.4877159949974157
2,COND1_LABEL,269.81273780198535,47,1,,,
4,COND1_WORD,271.329111553001,47,1,ladybug,,
6,RESP_Y,272.51979954499984,47,1,ladybug,y,1.1906814370013308
1,FIXATION,272.535913322994,47,1,ladybug,y,1.1906814370013308
2,COND1_LABEL,275.5486649249797,48,1,,,
4,COND1_WORD,277.06139214598807,48,1,antelope,,
6,RESP_Y,277.96241341598216,48,1,antelope,y,0.9010144250059966
1,FIXATION,277.9708877840021,48,1,antelope,y,0.9010144250059966
2,COND1_LABEL,280.98458392199245,49,1,,,
4,COND1_WORD,282.49881461798213,49,1,armadillo,,
6,RESP_Y,283.7673763069906,49,1,armadillo,y,1.2685530390008353
1,FIXATION,283.78092408098746,49,1,armadillo,y,1.2685530390008353
3,COND2_LABEL,286.79637583199656,50,2,,,
5,COND2_WORD,288.3124164949986,50,2,gun,,
7,RESP_N,289.26735146099236,50,2,gun,n,0.9549268229748122
1,FIXATION,289.2793029299937,50,2,gun,n,0.9549268229748122
2,COND1_LABEL,292.2954262269777,51,1,,,
4,COND1_WORD,293.8135034760053,51,1,flashlight,,
6,RESP_Y,296.00642799798516,51,1,flashlight,y,2.192925634008134
1,FIXATION,296.0149980589922,51,1,flashlight,y,2.192925634008134
3,COND2_LABEL,299.02861143200425,52,2,,,
5,COND2_WORD,300.54415894899284,52,2,pen,,
7,RESP_N,302.1813729739806,52,2,pen,n,1.6372128000075463
1,FIXATION,302.18679218698526,52,2,pen,n,1.6372128000075463
2,COND1_LABEL,305.2066761959868,53,1,,,
4,COND1_WORD,306.720168920001,53,1,kangaroo,,
6,RESP_Y,307.2833160489972,53,1,kangaroo,y,0.5631709920126013
1,FIXATION,307.2950429779885,53,1,kangaroo,y,0.5631709920126013
3,COND2_LABEL,310.3122365119925,54,2,,,
5,COND2_WORD,311.82929924398195,54,2,elk,,
6,RESP_Y,313.12245264000376,54,2,elk,y,1.2931527940090746
1,FIXATION,313.13085478398716,54,2,elk,y,1.2931527940090746
2,COND1_LABEL,316.1465711329947,55,1,,,
4,COND1_WORD,317.66298345898394,55,1,crab,,
6,RESP_Y,318.8018029590021,55,1,crab,y,1.1388091080007143
1,FIXATION,318.8143298399809,55,1,crab,y,1.1388091080007143
2,COND1_LABEL,321.8312855940021,56,1,,,
4,COND1_WORD,323.34718426299514,56,1,koala,,
6,RESP_Y,323.92661902698455,56,1,koala,y,0.5794319749984425
1,FIXATION,323.9349930159806,56,1,koala,y,0.5794319749984425
3,COND2_LABEL,326.94656683900394,57,2,,,
5,COND2_WORD,328.4626949209778,57,2,moose,,
6,RESP_Y,329.929292285,57,2,moose,y,1.466597588994773
1,FIXATION,329.9377358829952,57,2,moose,y,1.466597588994773
3,COND2_LABEL,332.9510255350033,58,2,,,
5,COND2_WORD,334.46386184499715,58,2,window,,
7,RESP_N,335.7183791449934,58,2,window,n,1.2545109109778423
1,FIXATION,335.7301256060018,58,2,window,n,1.2545109109778423
3,COND2_LABEL,338.74680558999535,59,2,,,
5,COND2_WORD,340.25784303600085,59,2,lynx,,
6,RESP_Y,341.19898626898066,59,2,lynx,y,0.9412849950022064
1,FIXATION,341.20517852099147,59,2,lynx,y,0.9412849950022064
3,COND2_LABEL,344.21881114700227,60,2,,,
5,COND2_WORD,345.73555624397704,60,2,butterfly,,
6,RESP_Y,346.64817444898654,60,2,butterfly,y,0.912609393009916
1,FIXATION,346.65385792500456,60,2,butterfly,y,0.912609393009916
3,COND2_LABEL,349.6662469909934,61,2,,,
5,COND2_WORD,351.17883039297885,61,2,engine,,
7,RESP_N,353.5092964869982,61,2,engine,n,2.330459693999728
1,FIXATION,353.5178944809886,61,2,engine,n,2.330459693999728
2,COND1_LABEL,356.53350412898,62,1,,,
4,COND1_WORD,358.05114254698856,62,1,radar,,
6,RESP_Y,359.56283764899126,62,1,radar,y,1.5117074660083745
1,FIXATION,359.57131376100006,62,1,radar,y,1.5117074660083745
2,COND1_LABEL,362.58939122699667,63,1,,,
4,COND1_WORD,364.10258626099676,63,1,hammer,,
6,RESP_Y,364.6941449659935,63,1,hammer,y,0.591548677009996
1,FIXATION,364.7023791639949,63,1,hammer,y,0.591548677009996
2,COND1_LABEL,367.71453362700413,64,1,,,
4,COND1_WORD,369.2309945790039,64,1,panda,,
6,RESP_Y,369.7918901410012,64,1,panda,y,0.5608925560081843
1,FIXATION,369.8003285260056,64,1,panda,y,0.5608925560081843
2,COND1_LABEL,372.81224323497736,65,1,,,
4,COND1_WORD,374.3318441399897,65,1,stamp,,
6,RESP_Y,375.4129917839891,65,1,stamp,y,1.0811395760101732
1,FIXATION,375.42284868698334,65,1,stamp,y,1.0811395760101732
2,COND1_LABEL,378.43891152899596,66,1,,,
4,COND1_WORD,379.9518539989949,66,1,giraffe,,
6,RESP_Y,380.4819514149858,66,1,giraffe,y,0.5300913500250317
1,FIXATION,380.4940902800008,66,1,giraffe,y,0.5300913500250317
3,COND2_LABEL,383.51016347299446,67,2,,,
5,COND2_WORD,385.0245767129818,67,2,kiwi,,
6,RESP_Y,390.86628356800065,67,2,kiwi,y,5.841833618003875
1,FIXATION,390.88454429700505,67,2,kiwi,y,5.841833618003875
2,COND1_LABEL,393.8983265259885,68,1,,,
4,COND1_WORD,395.4112825479824,68,1,chalk,,
6,RESP_Y,396.4404237669951,68,1,chalk,y,1.0291304900019895
1,FIXATION,396.4487327509851,68,1,chalk,y,1.0291304900019895
2,COND1_LABEL,399.4608002669993,69,1,,,
4,COND1_WORD,400.97945481099305,69,1,table,,
6,RESP_Y,401.83607956799096,69,1,table,y,0.85811212201952
1,FIXATION,401.8443603189953,69,1,table,y,0.85811212201952
3,COND2_LABEL,404.8590668819961,70,2,,,
5,COND2_WORD,406.3722237589827,70,2,pot,,
7,RESP_N,407.5529045609874,70,2,pot,n,1.1808175070036668
1,FIXATION,407.5612360019877,70,2,pot,n,1.1808175070036668
2,COND1_LABEL,410.5810336470022,71,1,,,
4,COND1_WORD,412.0946602339973,71,1,blanket,,
6,RESP_Y,412.60504755500006,71,1,blanket,y,0.5103785670071375
1,FIXATION,412.61077900600503,71,1,blanket,y,0.5103785670071375
2,COND1_LABEL,415.62653021200094,72,1,,,
4,COND1_WORD,417.14294166400214,72,1,piranha,,
6,RESP_Y,419.97445554600563,72,1,piranha,y,2.831507455004612
1,FIXATION,419.98295957699884,72,1,piranha,y,2.831507455004612
3,COND2_LABEL,422.998230881989,73,2,,,
5,COND2_WORD,424.5143180709856,73,2,belt,,
7,RESP_N,427.2447971709771,73,2,belt,n,2.730483532010112
1,FIXATION,427.25367873799405,73,2,belt,n,2.730483532010112
2,COND1_LABEL,430.26935045799473,74,1,,,
4,COND1_WORD,431.78364641798544,74,1,cobra,,
6,RESP_Y,432.64691465499345,74,1,cobra,y,0.8632473440084141
1,FIXATION,432.65928326998255,74,1,cobra,y,0.8632473440084141
2,COND1_LABEL,435.67280601197854,75,1,,,
4,COND1_WORD,437.18814207299147,75,1,watch,,
6,RESP_Y,437.7396556699823,75,1,watch,y,0.5515436540008523
1,FIXATION,437.74796874198364,75,1,watch,y,0.5515436540008523
2,COND1_LABEL,440.7612872819882,76,1,,,
4,COND1_WORD,442.2792689479829,76,1,statue,,
6,RESP_Y,442.8343983719824,76,1,statue,y,0.5555987650004681
1,FIXATION,442.8429745869944,76,1,statue,y,0.5555987650004681
3,COND2_LABEL,445.8544171889953,77,2,,,
5,COND2_WORD,447.3708660489938,77,2,firefly,,
6,RESP_Y,448.81196796300355,77,2,firefly,y,1.441114438988734
1,FIXATION,448.8212698919815,77,2,firefly,y,1.441114438988734
3,COND2_LABEL,451.83315203900565,78,2,,,
5,COND2_WORD,453.3459698179795,78,2,box,,
7,RESP_N,454.08449792698957,78,2,box,n,0.7390030169917736
1,FIXATION,454.0929563769896,78,2,box,n,0.7390030169917736
2,COND1_LABEL,457.1049891510047,79,1,,,
4,COND1_WORD,458.6188890929916,79,1,jaguar,,
6,RESP_Y,459.01205365298665,79,1,jaguar,y,0.3931611360167153
1,FIXATION,459.0212837319996,79,1,jaguar,y,0.3931611360167153
2,COND1_LABEL,462.0361658289912,80,1,,,
4,COND1_WORD,463.549454995984,80,1,lantern,,
6,RESP_Y,464.0377693649789,80,1,lantern,y,0.4887548509868793
1,FIXATION,464.04324233799707,80,1,lantern,y,0.4887548509868793
2,COND1_LABEL,467.05947869599913,81,1,,,
4,COND1_WORD,468.5778347069863,81,1,bandage,,
6,RESP_Y,469.08692302397685,81,1,bandage,y,0.5090887429832947
1,FIXATION,469.0952364229888,81,1,bandage,y,0.5090887429832947
3,COND2_LABEL,472.11064144500415,82,2,,,
5,COND2_WORD,473.6281223690021,82,2,beetle,,
6,RESP_Y,474.99138484097784,82,2,beetle,y,1.3637660919921473
1,FIXATION,475.00041470400174,82,2,beetle,y,1.3637660919921473
3,COND2_LABEL,478.01279898398207,83,2,,,
5,COND2_WORD,479.5271202829899,83,2,jellyfish,,
6,RESP_Y,480.2225490589917,83,2,jellyfish,y,0.6954242019855883
1,FIXATION,480.2309748349944,83,2,jellyfish,y,0.6954242019855883
3,COND2_LABEL,483.24334392498713,84,2,,,
5,COND2_WORD,484.7596436479944,84,2,ferret,,
7,RESP_N,486.4843069310009,84,2,ferret,n,1.7246540829946753
1,FIXATION,486.490257241996,84,2,ferret,n,1.7246540829946753
3,COND2_LABEL,489.50247562199365,85,2,,,
5,COND2_WORD,491.0191016129975,85,2,python,,
6,RESP_Y,493.3881512049993,85,2,python,y,2.3690660420106724
1,FIXATION,493.3971296499949,85,2,python,y,2.3690660420106724
2,COND1_LABEL,496.4102959949814,86,1,,,
4,COND1_WORD,497.9253632189939,86,1,baboon,,
6,RESP_Y,500.00591129998793,86,1,baboon,y,2.0805418690142687
1,FIXATION,500.0142481539806,86,1,baboon,y,2.0805418690142687
3,COND2_LABEL,503.0259389349958,87,2,,,
5,COND2_WORD,504.54202544200234,87,2,frog,,
6,RESP_Y,506.46300850997795,87,2,frog,y,1.921489947999362
1,FIXATION,506.4689567220048,87,2,frog,y,1.921489947999362
2,COND1_LABEL,509.48395666098804,88,1,,,
4,COND1_WORD,510.9982050730032,88,1,chain,,
6,RESP_Y,513.2678255729843,88,1,chain,y,2.269616636011051
1,FIXATION,513.2763083589962,88,1,chain,y,2.269616636011051
2,COND1_LABEL,516.2910788119771,89,1,,,
4,COND1_WORD,517.8082117129816,89,1,hamster,,
6,RESP_Y,518.4300838219933,89,1,hamster,y,0.6219072719977703
1,FIXATION,518.4416793510027,89,1,hamster,y,0.6219072719977703
2,COND1_LABEL,521.4593907399976,90,1,,,
4,COND1_WORD,522.9748352319875,90,1,catfish,,
6,RESP_Y,523.5350882929924,90,1,catfish,y,0.5602440809889231
1,FIXATION,523.5435529789829,90,1,catfish,y,0.5602440809889231
3,COND2_LABEL,526.5609522080049,91,2,,,
5,COND2_WORD,528.0742341779987,91,2,lobster,,
6,RESP_Y,528.8801503689901,91,2,lobster,y,0.8059173410001677
1,FIXATION,528.8859855349874,91,2,lobster,y,0.8059173410001677
2,COND1_LABEL,531.898907758994,92,1,,,
4,COND1_WORD,533.4117415529909,92,1,bear,,
6,RESP_Y,534.831620921992,92,1,bear,y,1.4198687199968845
1,FIXATION,534.8440127380018,92,1,bear,y,1.4198687199968845
3,COND2_LABEL,537.8603723050037,93,2,,,
5,COND2_WORD,539.3765674409806,93,2,horse,,
6,RESP_Y,542.2154111109849,93,2,horse,y,2.838862770993728
1,FIXATION,542.2274224550056,93,2,horse,y,2.838862770993728
2,COND1_LABEL,545.241883198003,94,1,,,
4,COND1_WORD,546.7549381509889,94,1,rabbit,,
6,RESP_Y,547.3696226799802,94,1,rabbit,y,0.6146834050014149
1,FIXATION,547.3786939400015,94,1,rabbit,y,0.6146834050014149
3,COND2_LABEL,550.394183861994,95,2,,,
5,COND2_WORD,551.9083689419786,95,2,drum,,
7,RESP_N,552.6726934829785,95,2,drum,n,0.7643319299968425
1,FIXATION,552.6787200139952,95,2,drum,n,0.7643319299968425
3,COND2_LABEL,555.6951474660018,96,2,,,
5,COND2_WORD,557.2081681449781,96,2,key,,
7,RESP_N,557.8189460790018,96,2,key,n,0.6112565000075847
1,FIXATION,557.8281904439791,96,2,key,n,0.6112565000075847
2,COND1_LABEL,560.8437271589937,97,1,,,
4,COND1_WORD,562.3571802609949,97,1,eagle,,
6,RESP_Y,563.362129592977,97,1,eagle,y,1.0049466709897388
1,FIXATION,563.3719632439897,97,1,eagle,y,1.0049466709897388
3,COND2_LABEL,566.3851413499797,98,2,,,
5,COND2_WORD,567.9001511849929,98,2,roof,,
7,RESP_N,568.5971462960006,98,2,roof,n,0.6977577819779981
1,FIXATION,568.6095037389896,98,2,roof,n,0.6977577819779981
2,COND1_LABEL,571.6255653259868,99,1,,,
4,COND1_WORD,573.1436497599934,99,1,ant,,
6,RESP_Y,573.5370105009933,99,1,ant,y,0.39336926699616015
1,FIXATION,573.5452556719829,99,1,ant,y,0.39336926699616015
2,COND1_LABEL,576.5571413259895,100,1,,,
4,COND1_WORD,578.0713560929871,100,1,gravel,,
6,RESP_Y,581.7885833299952,100,1,gravel,y,3.7185826010245364
1,FIXATION,581.7983651800023,100,1,gravel,y,3.7185826010245364
2,COND1_LABEL,584.8126941069786,101,1,,,
4,COND1_WORD,586.323068771977,101,1,albatross,,
6,RESP_Y,587.2880286900036,101,1,albatross,y,0.9650501860014629
1,FIXATION,587.2969181340013,101,1,albatross,y,0.9650501860014629
3,COND2_LABEL,590.3092543319799,102,2,,,
5,COND2_WORD,591.8257573329902,102,2,fish,,
6,RESP_Y,592.4664338979928,102,2,fish,y,0.6406769779860042
1,FIXATION,592.4757759700005,102,2,fish,y,0.6406769779860042
3,COND2_LABEL,595.4911249599827,103,2,,,
5,COND2_WORD,597.0069288819795,103,2,coin,,
7,RESP_N,597.5957911110017,103,2,coin,n,0.5888597269949969
1,FIXATION,597.6077384630044,103,2,coin,n,0.5888597269949969
3,COND2_LABEL,600.6197416269861,104,2,,,
5,COND2_WORD,602.1323220070044,104,2,wolf,,
6,RESP_Y,603.3673067859781,104,2,wolf,y,1.2349758339987602
1,FIXATION,603.3817617009918,104,2,wolf,y,1.2349758339987602
3,COND2_LABEL,606.3945474319917,105,2,,,
5,COND2_WORD,607.9088571750035,105,2,bulb,,
7,RESP_N,608.7507159469824,105,2,bulb,n,0.8423306240001693
1,FIXATION,608.7597970200004,105,2,bulb,n,0.8423306240001693
2,COND1_LABEL,611.7744774289895,106,1,,,
4,COND1_WORD,613.2918076839997,106,1,sofa,,
6,RESP_Y,614.0945584099973,106,1,sofa,y,0.8027467709907796
1,FIXATION,614.1033100589993,106,1,sofa,y,0.8027467709907796
3,COND2_LABEL,617.1158389069897,107,2,,,
5,COND2_WORD,618.628670873004,107,2,exit,,
7,RESP_N,620.9624540639925,107,2,exit,n,2.333771865000017
1,FIXATION,620.9714866300055,107,2,exit,n,2.333771865000017
2,COND1_LABEL,623.9845048559946,108,1,,,
4,COND1_WORD,625.4979837680003,108,1,raccoon,,
6,RESP_Y,626.1241097439779,108,1,raccoon,y,0.6261215459962841
1,FIXATION,626.1326726809784,108,1,raccoon,y,0.6261215459962841
3,COND2_LABEL,629.1451037889929,109,2,,,
5,COND2_WORD,630.6597759199794,109,2,chicken,,
6,RESP_Y,631.3239885949879,109,2,chicken,y,0.664201970997965
1,FIXATION,631.3328095850011,109,2,chicken,y,0.664201970997965
3,COND2_LABEL,634.3445571539924,110,2,,,
5,COND2_WORD,635.8573922329815,110,2,bridge,,
7,RESP_N,638.1796809569933,110,2,bridge,n,2.322283656016225
1,FIXATION,638.1917010039906,110,2,bridge,n,2.322283656016225
2,COND1_LABEL,641.2105152199802,111,1,,,
4,COND1_WORD,642.7247763999912,111,1,arch,,
6,RESP_Y,643.2267269319855,111,1,arch,y,0.5019462990167085
1,FIXATION,643.232557855983,111,1,arch,y,0.5019462990167085
3,COND2_LABEL,646.2454612549918,112,2,,,
5,COND2_WORD,647.7581445209798,112,2,cod,,
6,RESP_Y,649.808512972988,112,2,cod,y,2.0503652569896076
1,FIXATION,649.8171037719876,112,2,cod,y,2.0503652569896076
3,COND2_LABEL,652.8313430349808,113,2,,,
5,COND2_WORD,654.3437722300005,113,2,mop,,
7,RESP_N,656.4848058449861,113,2,mop,n,2.141024598997319
1,FIXATION,656.493714723998,113,2,mop,n,2.141024598997319
3,COND2_LABEL,659.506550267979,114,2,,,
5,COND2_WORD,661.0227281389816,114,2,door,,
7,RESP_N,663.0912771119911,114,2,door,n,2.0685350129788276
1,FIXATION,663.1007824099797,114,2,door,n,2.0685350129788276
3,COND2_LABEL,666.1163649619848,115,2,,,
5,COND2_WORD,667.6294301839953,115,2,pigeon,,
6,RESP_Y,668.2332032889826,115,2,pigeon,y,0.6037757110025268
1,FIXATION,668.2414340910036,115,2,pigeon,y,0.6037757110025268
2,COND1_LABEL,671.2573750019947,116,1,,,
4,COND1_WORD,672.7746230259945,116,1,passport,,
6,RESP_Y,675.5640248149866,116,1,passport,y,2.789392696984578
1,FIXATION,675.5742786199844,116,1,passport,y,2.789392696984578
2,COND1_LABEL,678.5917017339962,117,1,,,
4,COND1_WORD,680.1068122969882,117,1,grasshopper,,
6,RESP_Y,680.5024502959859,117,1,grasshopper,y,0.395628152997233
1,FIXATION,680.511923240003,117,1,grasshopper,y,0.395628152997233
2,COND1_LABEL,683.524866755004,118,1,,,
4,COND1_WORD,685.0412837539916,118,1,stairs,,
6,RESP_Y,685.7663166289858,118,1,stairs,y,0.7250259929860476
1,FIXATION,685.7738311409776,118,1,stairs,y,0.7250259929860476
2,COND1_LABEL,688.7881513859902,119,1,,,
4,COND1_WORD,690.3063689559931,119,1,alpaca,,
6,RESP_Y,690.8540540410031,119,1,alpaca,y,0.5477076770039275
1,FIXATION,690.8623316049925,119,1,alpaca,y,0.5477076770039275
3,COND2_LABEL,693.874439406005,120,2,,,
5,COND2_WORD,695.3911368029949,120,2,pig,,
6,RESP_Y,695.8512560800009,120,2,pig,y,0.46051633101888
1,FIXATION,695.8595649579947,120,2,pig,y,0.46051633101888
3,COND2_LABEL,698.8731713680027,121,2,,,
5,COND2_WORD,700.3898957709898,121,2,brush,,
7,RESP_N,701.0216485129786,121,2,brush,n,0.6317352170008235
1,FIXATION,701.0303185439843,121,2,brush,n,0.6317352170008235
2,COND1_LABEL,704.0396992229798,122,1,,,
4,COND1_WORD,705.5523461340053,122,1,camera,,
6,RESP_Y,706.9349361019849,122,1,camera,y,1.384932460001437
1,FIXATION,706.9433602849895,122,1,camera,y,1.384932460001437
2,COND1_LABEL,709.9556012660032,123,1,,,
4,COND1_WORD,711.4684960659943,123,1,candle,,
6,RESP_Y,714.1190496289928,123,1,candle,y,2.650734378985362
1,FIXATION,714.1275777449773,123,1,candle,y,2.650734378985362
2,COND1_LABEL,717.142095054005,124,1,,,
4,COND1_WORD,718.6560482709901,124,1,jacket,,
6,RESP_Y,719.5677601609787,124,1,jacket,y,0.9117226540111005
1,FIXATION,719.5762693400029,124,1,jacket,y,0.9117226540111005
3,COND2_LABEL,722.5918849069858,125,2,,,
5,COND2_WORD,724.1048460110032,125,2,lion,,
6,RESP_Y,725.0356591150048,125,2,lion,y,0.9308072359999642
1,FIXATION,725.0438707110006,125,2,lion,y,0.9308072359999642
2,COND1_LABEL,728.0561438639998,126,1,,,
4,COND1_WORD,729.565732187999,126,1,flag,,
6,RESP_Y,730.0405055269948,126,1,flag,y,0.47487607499351725
1,FIXATION,730.0487145329826,126,1,flag,y,0.47487607499351725
3,COND2_LABEL,733.0606738089991,127,2,,,
5,COND2_WORD,734.5729371659982,127,2,lock,,
7,RESP_N,735.1571734519966,127,2,lock,n,0.5842268010019325
1,FIXATION,735.165791810985,127,2,lock,n,0.5842268010019325
3,COND2_LABEL,738.1778837169986,128,2,,,
5,COND2_WORD,739.6903611629969,128,2,truck,,
7,RESP_N,740.7097772439884,128,2,truck,n,1.0194082930102013
1,FIXATION,740.7228982560046,128,2,truck,n,1.0194082930102013
2,COND1_LABEL,743.7382560590049,129,1,,,
4,COND1_WORD,745.2564605009975,129,1,badge,,
6,RESP_Y,745.7145230280003,129,1,badge,y,0.4580587140226271
1,FIXATION,745.7247159109975,129,1,badge,y,0.4580587140226271
3,COND2_LABEL,748.7416339170013,130,2,,,
5,COND2_WORD,750.25507427298,130,2,fence,,
7,RESP_N,751.2625330689771,130,2,fence,n,1.0074488539830782
1,FIXATION,751.2755821610044,130,2,fence,n,1.0074488539830782
2,COND1_LABEL,754.2880946669902,131,1,,,
4,COND1_WORD,755.8022055210022,131,1,axle,,
6,RESP_Y,756.6410126929986,131,1,axle,y,0.8388222030189354
1,FIXATION,756.6494120550051,131,1,axle,y,0.8388222030189354
3,COND2_LABEL,759.6649457019812,132,2,,,
5,COND2_WORD,761.1775676999823,132,2,plug,,
7,RESP_N,762.1182922629814,132,2,plug,n,0.9407080940145534
1,FIXATION,762.128021520999,132,2,plug,n,0.9407080940145534
2,COND1_LABEL,765.1408282009943,133,1,,,
4,COND1_WORD,766.6575300719996,133,1,hawk,,
6,RESP_Y,766.9255171929835,133,1,hawk,y,0.26801925999461673
1,FIXATION,766.9339200760005,133,1,hawk,y,0.26801925999461673
2,COND1_LABEL,769.9471947659913,134,1,,,
4,COND1_WORD,771.4596579530044,134,1,sandpaper,,
6,RESP_Y,772.0805600519816,134,1,sandpaper,y,0.62089661200298
1,FIXATION,772.0866384659894,134,1,sandpaper,y,0.62089661200298
2,COND1_LABEL,775.099027504999,135,1,,,
4,COND1_WORD,776.6128492179851,135,1,barrel,,
6,RESP_Y,777.405861613981,135,1,barrel,y,0.7930105470004492
1,FIXATION,777.4142087249784,135,1,barrel,y,0.7930105470004492
3,COND2_LABEL,780.4264748209971,136,2,,,
5,COND2_WORD,781.9445938659774,136,2,fox,,
6,RESP_Y,783.0844974069914,136,2,fox,y,1.1398926980036777
1,FIXATION,783.0935898759926,136,2,fox,y,1.1398926980036777
3,COND2_LABEL,786.106646848988,137,2,,,
5,COND2_WORD,787.623361053993,137,2,turtle,,
6,RESP_Y,788.5551682319783,137,2,turtle,y,0.9318617960088886
1,FIXATION,788.560845961998,137,2,turtle,y,0.9318617960088886
3,COND2_LABEL,791.5734291840054,138,2,,,
5,COND2_WORD,793.089797987981,138,2,bicycle,,
7,RESP_N,793.6787687119795,138,2,bicycle,n,0.5889654229977168
1,FIXATION,793.6905855409859,138,2,bicycle,n,0.5889654229977168
3,COND2_LABEL,796.705842380994,139,2,,,
5,COND2_WORD,798.2233648730034,139,2,sheep,,
6,RESP_Y,798.7551023459819,139,2,sheep,y,0.531743510015076
1,FIXATION,798.7635296529916,139,2,sheep,y,0.531743510015076
2,COND1_LABEL,801.7775070329953,140,1,,,
4,COND1_WORD,803.2944510619855,140,1,coral,,
6,RESP_Y,803.8535625259974,140,1,coral,y,0.5591189879924059
1,FIXATION,803.8619788700016,140,1,coral,y,0.5591189879924059
3,COND2_LABEL,806.8735725189908,141,2,,,
5,COND2_WORD,808.3898321290035,141,2,pine,,
7,RESP_N,809.427937409986,141,2,pine,n,1.0380996910098474
1,FIXATION,809.4401317999873,141,2,pine,n,1.0380996910098474
2,COND1_LABEL,812.4578494409798,142,1,,,
4,COND1_WORD,813.9723819879873,142,1,clam,,
6,RESP_Y,814.9863521719817,142,1,clam,y,1.0139755029813386
1,FIXATION,814.9947895009827,142,1,clam,y,1.0139755029813386
2,COND1_LABEL,818.0068797190033,143,1,,,
4,COND1_WORD,819.5229128229839,143,1,attic,,
6,RESP_Y,820.0199824720039,143,1,attic,y,0.49705617799190804
1,FIXATION,820.0287487629976,143,1,attic,y,0.49705617799190804
2,COND1_LABEL,823.0413074469834,144,1,,,
4,COND1_WORD,824.5538222859905,144,1,gate,,
6,RESP_Y,825.1282401589851,144,1,gate,y,0.5744284060201608
1,FIXATION,825.1403369799955,144,1,gate,y,0.5744284060201608
2,COND1_LABEL,828.1560544569802,145,1,,,
4,COND1_WORD,829.6724157089775,145,1,galaxy,,
6,RESP_Y,830.0723992619896,145,1,galaxy,y,0.4000134459929541
1,FIXATION,830.0806303269928,145,1,galaxy,y,0.4000134459929541
2,COND1_LABEL,833.0934096809942,146,1,,,
4,COND1_WORD,834.6059370879957,146,1,compass,,
6,RESP_Y,835.1805395629781,146,1,compass,y,0.5746012890012935
1,FIXATION,835.1889039209927,146,1,compass,y,0.5746012890012935
3,COND2_LABEL,838.2042171389912,147,2,,,
5,COND2_WORD,839.7200674259802,147,2,lens,,
7,RESP_N,841.4314540089981,147,2,lens,n,1.7113901529810391
1,FIXATION,841.4397618079965,147,2,lens,n,1.7113901529810391
3,COND2_LABEL,844.4562903769838,148,2,,,
5,COND2_WORD,845.9707596369844,148,2,joint,,
7,RESP_N,846.5360905929992,148,2,joint,n,0.5653228230075911
1,FIXATION,846.5446150529897,148,2,joint,n,0.5653228230075911
3,COND2_LABEL,849.5563370869786,149,2,,,
5,COND2_WORD,851.0721675279783,149,2,hose,,
7,RESP_N,854.5717769699986,149,2,hose,n,3.4996032360068057
1,FIXATION,854.5809065529902,149,2,hose,n,3.4996032360068057
2,COND1_LABEL,857.5952708649857,150,1,,,
4,COND1_WORD,859.1082807779894,150,1,magnet,,
6,RESP_Y,860.3321750719915,150,1,magnet,y,1.2238823999941815
1,FIXATION,860.3379816899833,150,1,magnet,y,1.2238823999941815
3,COND2_LABEL,863.3532209759869,151,2,,,
5,COND2_WORD,864.8678867569834,151,2,iron,,
7,RESP_N,866.3227615429787,151,2,iron,n,1.4564071029890329
1,FIXATION,866.3484078600013,151,2,iron,n,1.4564071029890329
2,COND1_LABEL,869.3651905540028,152,1,,,
4,COND1_WORD,870.8827930199914,152,1,elephant,,
6,RESP_Y,871.3789587429783,152,1,elephant,y,0.49616772899753414
1,FIXATION,871.3877009849821,152,1,elephant,y,0.49616772899753414
3,COND2_LABEL,874.4055808369885,153,2,,,
5,COND2_WORD,875.9225029980007,153,2,moth,,
6,RESP_Y,877.4665528659825,153,2,moth,y,1.5440333180013113
1,FIXATION,877.4758591979917,153,2,moth,y,1.5440333180013113
3,COND2_LABEL,880.4878176619823,154,2,,,
5,COND2_WORD,882.0034696729854,154,2,bee,,
6,RESP_Y,882.4905298909871,154,2,bee,y,0.48704861401347443
1,FIXATION,882.4989732419781,154,2,bee,y,0.48704861401347443
3,COND2_LABEL,885.5115625280014,155,2,,,
5,COND2_WORD,887.0249279119889,155,2,cup,,
7,RESP_N,887.6204795619997,155,2,cup,n,0.5955444779829122
1,FIXATION,887.6290178009949,155,2,cup,n,0.5955444779829122
3,COND2_LABEL,890.6446350269835,156,2,,,
5,COND2_WORD,892.157418524992,156,2,hummingbird,,
6,RESP_Y,893.8349600899965,156,2,hummingbird,y,1.6775326610077173
1,FIXATION,893.8435676659865,156,2,hummingbird,y,1.6775326610077173
3,COND2_LABEL,896.8560333509813,157,2,,,
5,COND2_WORD,898.3696045090037,157,2,monkey,,
6,RESP_Y,899.4919305259828,157,2,monkey,y,1.1223203020053916
1,FIXATION,899.5047287879861,157,2,monkey,y,1.1223203020053916
